File: desktop/XRD_data/Chemin-CSV/difdata-chemin.txt
      Akaganeite
      Post J E, Heaney P J, Von Dreele R B, Hanson J C
      American Mineralogist 88 (2003) 782-788
      Neutron and temperature-resolved synchrotron X-ray powder diffraction
      study of akaganeite
      _database_code_amcsd 0003079

      CELL PARAMETERS:  10.5870  3.0311 10.5150   90.000   90.030   90.000
      SPACE GROUP: I2/m
      X-RAY WAVELENGTH:     1.541838
      MAX. ABS. INTENSITY / VOLUME**2:      12.3609
               2-THETA      INTENSITY    D-SPACING   H   K   L   Multiplicity
                11.86         93.53        7.4625   -1   0   1         2
                11.87         79.23        7.4586    1   0   1         2
                16.75         47.36        5.2935    2   0   0         2
                16.86         57.66        5.2575    0   0   2         2
                23.85          8.48        3.7313   -2   0   2         2
                23.86          7.20        3.7293    2   0   2         2
                26.64         43.66        3.3461   -3   0   1         2
                26.65         78.32        3.3451    3   0   1         2
                26.79         81.87        3.3279   -1   0   3         2
                26.80         43.97        3.3269    1   0   3         2
                33.87         39.49        2.6467    4   0   0         2
                34.11         31.62        2.6287    0   0   4         2
                35.17         51.32        2.5519   -2   1   1         4
                35.17         48.68        2.5516    2   1   1         4
                35.21         40.55        2.5489   -1   1   2         4
                35.21         54.10        2.5486    1   1   2         4
                36.11          9.26        2.4875   -3   0   3         2
                36.13          8.11        2.4862    3   0   3         2
                38.06          1.51        2.3646   -4   0   2         2
                38.07          7.83        2.3636    4   0   2         2
                38.22          7.92        2.3549   -2   0   4         2
                38.23          2.44        2.3539    2   0   4         2
                39.18         32.83        2.2994    3   1   0         4
                39.30         29.81        2.2927    0   1   3         4
                42.92          6.42        2.1070   -3   1   2         4
                42.94          5.15        2.1064    3   1   2         4
                42.99          4.68        2.1041   -2   1   3         4
                43.00          6.61        2.1036    2   1   3         4
                43.60          5.14        2.0759   -5   0   1         2
                43.61          1.57        2.0755    5   0   1         2
                43.89          2.49        2.0629   -1   0   5         2
                43.90          3.51        2.0625    1   0   5         2
                46.35         13.26        1.9589   -4   1   1         4
                46.36         17.76        1.9586    4   1   1         4
                46.52         14.93        1.9520   -1   1   4         4
                46.53         16.42        1.9518    1   1   4         4
                48.81          8.39        1.8656   -4   0   4         2
                48.84          6.71        1.8647    4   0   4         2
                51.81         24.66        1.7645    6   0   0         2
                52.19         21.44        1.7525    0   0   6         2
                52.73          2.29        1.7358    5   1   0         4
                52.84          1.13        1.7326    4   1   3         4
                52.89          1.62        1.7310   -3   1   4         4
                52.91          1.20        1.7304    3   1   4         4
                53.00          4.45        1.7279    0   1   5         4
                54.88          1.27        1.6731   -6   0   2         2
                55.22          1.41        1.6634    2   0   6         2
                55.76         21.94        1.6485   -5   1   2         4
                55.78         36.92        1.6481    5   1   2         4
                55.97         39.03        1.6428   -2   1   5         4
                55.99         25.21        1.6424    2   1   5         4
                61.15         21.04        1.5156    0   2   0         2
                61.43          7.77        1.5092   -6   1   1         4
                61.44          1.18        1.5090    6   1   1         4
                61.77          8.22        1.5017    1   1   6         4
                61.99          1.32        1.4971   -7   0   1         2
                62.00          5.10        1.4969    7   0   1         2
                62.44          4.01        1.4874   -1   0   7         2
                62.54          3.23        1.4852   -1   2   1         4
                62.54          3.01        1.4852    1   2   1         4
                63.52          2.85        1.4647    6   0   4         2
                63.67          3.29        1.4616   -4   0   6         2
                63.89          2.85        1.4570    2   2   0         4
                63.93          3.36        1.4563    0   2   2         4
                64.30         18.04        1.4488   -5   1   4         4
                64.32          8.85        1.4482    5   1   4         4
                64.38          7.45        1.4471   -4   1   5         4
                64.41         16.86        1.4466    4   1   5         4
                66.90          1.14        1.3986   -6   1   3         4
                67.43          6.82        1.3889   -7   0   3         2
                67.46          4.79        1.3884    7   0   3         2
                67.79          4.37        1.3824   -3   0   7         2
                67.82          6.82        1.3819    3   0   7         2
                67.89          2.60        1.3805   -3   2   1         4
                67.90          4.92        1.3805    3   2   1         4
                67.96          5.27        1.3793   -1   2   3         4
                67.97          2.50        1.3792    1   2   3         4
                71.77          6.98        1.3152    4   2   0         4
                71.91          5.94        1.3130    0   2   4         4
                73.12          3.17        1.2943   -3   2   3         4
                73.13          3.05        1.2941    3   2   3         4
                76.61          1.49        1.2438   -6   0   6         2
                76.66          2.48        1.2431    6   0   6         2
                77.27          4.52        1.2348   -6   1   5         4
                77.40          3.09        1.2330    5   1   6         4
                77.97          1.10        1.2255   -5   0   7         2
                79.56          1.71        1.2049   -8   1   1         4
                79.57          1.07        1.2048    8   1   1         4
                80.10          2.57        1.1981    1   1   8         4
                81.89          1.76        1.1763   -4   2   4         4
                81.92          1.36        1.1761    4   2   4         4
                82.52          1.48        1.1690    9   0   1         2
                83.18          1.68        1.1613   -1   0   9         2
                84.22          6.22        1.1497    6   2   0         4
                84.52          5.61        1.1463    0   2   6         4
================================================================================
       XPOW Copyright 1993 Bob Downs, Ranjini Swaminathan and Kurt Bartelmehs
  For reference, see Downs et al. (1993) American Mineralogist 78, 1104-1107.
_END_
      Andesine
      FitzGerald J D, Parise J B, Mackinnon I D R
      American Mineralogist 71 (1986) 1399-1408
      Average structure of an An48 plagioclase from the Hogarth Ranges
      Sample: Neutron data
      _database_code_amcsd 0001052

      CELL PARAMETERS:   8.1790 12.8800  7.1120   93.440  116.210   90.230
      SPACE GROUP: C-1
      X-RAY WAVELENGTH:     1.541838
      MAX. ABS. INTENSITY / VOLUME**2:      4.57577
               2-THETA      INTENSITY    D-SPACING   H   K   L   Multiplicity
                13.70          8.13        6.4649   -1   1   0         2
                13.78          1.02        6.4247    0   2   0         2
                13.91          1.24        6.3656    0   0   1         2
                15.19          2.89        5.8320   -1  -1   1         2
                15.68          1.54        5.6503   -1   1   1         2
                18.94          6.11        4.6861    0  -2   1         2
                21.97         85.49        4.0450   -2   0   1         2
                22.83         18.40        3.8958    1  -1   1         2
                23.66         28.72        3.7609    1   1   1         2
                23.70         41.19        3.7547   -1   3   0         2
                24.42         34.71        3.6449    1   3   0         2
                24.53         12.18        3.6289   -1  -3   1         2
                25.46          1.09        3.4986   -1   3   1         2
                25.63         13.52        3.4755   -1  -1   2         2
                25.96          4.99        3.4326   -2  -2   1         2
                26.45         24.27        3.3695   -1   1   2         2
                27.60         51.27        3.2325   -2   2   0         2
                27.77         62.65        3.2123    0   4   0         2
                27.82         94.38        3.2072   -2   0   2         2
                28.03        100.00        3.1828    0   0   2         2
                28.43         41.66        3.1390    2   2   0         2
                29.56         22.77        3.0216    1  -3   1         2
                30.29         26.58        2.9507    0  -4   1         2
                30.47         17.51        2.9335    0  -2   2         2
                30.66         10.30        2.9160   -2  -2   2         2
                31.50         23.40        2.8402    1   3   1         2
                31.76          7.81        2.8177   -1  -3   2         2
                33.75         13.63        2.6554   -1   3   2         2
                35.33          3.09        2.5404    2  -2   1         2
                35.58         29.12        2.5232   -2  -4   1         2
                35.59          4.02        2.5229   -3  -1   2         2
                35.60          4.41        2.5221    1  -1   2         2
                35.80         19.20        2.5080   -2   4   1         2
                35.86          1.47        2.5039   -3   1   2         2
                36.55          2.60        2.4582   -2   4   0         2
                36.78          3.22        2.4436    2   2   1         2
                37.17          4.34        2.4188   -1  -5   1         2
                37.20          4.07        2.4167   -3   1   0         2
                37.69          3.31        2.3866    3   1   0         2
                37.86          4.26        2.3765    2   4   0         2
                38.24          3.10        2.3536   -1   5   1         2
                39.07          5.49        2.3053   -3   3   1         2
                39.39          6.56        2.2876   -3  -3   1         2
                39.72          3.23        2.2693   -1   1   3         2
                40.07          1.63        2.2503    1  -3   2         2
                40.51          3.91        2.2271    1  -5   1         2
                40.53          2.31        2.2260   -2   4   2         2
                41.28          1.70        2.1869    0   4   2         2
                41.80          2.08        2.1611   -2   2   3         2
                41.92          1.22        2.1550   -3   3   0         2
                42.15          1.13        2.1439   -1  -5   2         2
                42.20          9.86        2.1416    0   6   0         2
                42.53         12.75        2.1254    2  -4   1         2
                42.97          8.07        2.1050    1   5   1         2
                43.17          1.95        2.0957   -3   1   3         2
                43.23          1.28        2.0926    3   3   0         2
                44.77          1.03        2.0244   -1   5   2         2
                44.81          2.77        2.0225   -4   0   2         2
                44.99          3.30        2.0150   -4   0   1         2
                45.24          1.00        2.0042    2   0   2         2
                45.45          1.56        1.9956    3  -1   1         2
                45.47          1.90        1.9948   -1   3   3         2
                45.61          4.65        1.9888    0   6   1         2
                46.18          1.52        1.9656    3   1   1         2
                46.63          3.13        1.9479    2  -2   2         2
                47.02          3.44        1.9326   -4  -2   2         2
                47.20          9.92        1.9258   -4   2   2         2
                48.41          7.49        1.8804    2   2   2         2
                48.49          5.38        1.8773   -2   6   0         2
                49.23          1.23        1.8510    3  -3   1         2
                49.24         11.39        1.8506   -4   0   3         2
                49.65          3.37        1.8363    0  -6   2         2
                49.73         13.10        1.8334    4   0   0         2
                49.76          2.91        1.8322    1  -1   3         2
                49.85          2.55        1.8294    0  -4   3         2
                50.05          5.17        1.8224    2   6   0         2
                50.29          3.41        1.8145   -2  -6   2         2
                50.79          8.92        1.7977    1   1   3         2
                50.86          2.54        1.7952   -1   7   0         2
                51.00          1.03        1.7905   -4  -2   3         2
                51.22          1.12        1.7835   -1  -7   1         2
                51.49         22.79        1.7747   -2   0   4         2
                52.28          5.73        1.7498    2  -4   2         2
                52.30          1.98        1.7493   -2   6   2         2
                52.32          1.35        1.7484    1   5   2         2
                52.36          1.62        1.7474    4   2   0         2
                52.38          1.18        1.7466   -1   7   1         2
                52.67          3.01        1.7377   -2  -2   4         2
                52.98          1.33        1.7283    1  -3   3         2
                53.17          2.91        1.7227    0   6   2         2
                53.29          3.00        1.7191   -4   4   1         2
                53.36          1.90        1.7170    0   4   3         2
                53.38          5.85        1.7163   -4  -4   2         2
                53.70          3.53        1.7068   -4   4   2         2
                54.10          1.77        1.6951   -4  -4   1         2
                54.46          3.37        1.6848   -2   2   4         2
                54.75          1.55        1.6766   -3  -5   3         2
                55.53          3.64        1.6550    2   4   2         2
                56.37          1.42        1.6321   -3  -3   4         2
                56.77          1.12        1.6216   -4  -4   3         2
                56.83          1.49        1.6199    3  -5   1         2
                57.12          3.87        1.6125   -3   5   3         2
                57.37          2.12        1.6062    0   8   0         2
                58.27          1.48        1.5835   -5   1   1         2
                58.27          1.42        1.5834    0  -8   1         2
                58.80          1.85        1.5705   -4  -2   4         2
                58.81          2.45        1.5702    0  -2   4         2
                59.92          2.96        1.5438    3   5   1         2
                60.01          2.07        1.5416   -4   2   4         2
                60.07          1.28        1.5403    2  -2   3         2
                60.21          1.04        1.5369    1  -7   2         2
                60.93          1.11        1.5205    0   2   4         2
                61.17          1.93        1.5152   -2   4   4         2
                61.36          1.55        1.5108    2  -6   2         2
                62.04          4.88        1.4960   -2  -8   1         2
                62.32          5.81        1.4900   -2   8   0         2
                62.36          1.07        1.4891    3   3   2         2
                62.49          4.12        1.4864   -5  -3   3         2
                62.66          1.05        1.4825   -5  -3   1         2
                62.83          5.25        1.4791   -4   6   1         2
                63.00          1.66        1.4754    0  -8   2         2
                63.14          2.33        1.4724   -5   3   3         2
                63.46          3.59        1.4659   -4   6   2         2
                63.85          5.35        1.4579    0   6   3         2
                64.08          3.97        1.4531    2   8   0         2
                64.66          3.52        1.4416    2  -4   3         2
                65.28          2.04        1.4293   -5   1   4         2
                65.76          3.80        1.4201    2   6   2         2
                65.93          1.24        1.4168   -4   6   0         2
                66.03          1.45        1.4148    2  -8   1         2
                66.28          1.80        1.4102    1   1   4         2
                67.05          2.26        1.3959    4   4   1         2
                67.23          3.39        1.3925    1   9   0         2
                67.65          5.35        1.3848    1  -3   4         2
                67.77          2.48        1.3828   -4   6   3         2
                67.81          1.00        1.3820   -1   9   1         2
                67.95          3.28        1.3795   -5  -3   4         2
                68.30          1.08        1.3734    5   3   0         2
                68.37          2.89        1.3721    1  -9   1         2
                68.49          2.12        1.3699    4   6   0         2
                68.52          2.47        1.3695    2   4   3         2
                68.66          4.05        1.3670   -4   0   5         2
                69.05          6.69        1.3602   -6   0   2         2
                69.46          4.71        1.3531   -1  -9   2         2
                69.59          6.49        1.3509    4   0   2         2
                69.62          2.13        1.3505   -4  -2   5         2
                69.72          1.69        1.3488    2   8   1         2
                70.07          3.07        1.3429   -1   1   5         2
                70.44          1.12        1.3367    4  -2   2         2
                70.54          1.75        1.3351   -5   5   3         2
                70.94          1.37        1.3285   -6  -2   2         2
                71.14          1.67        1.3253    0  -8   3         2
                71.34          2.73        1.3220   -1  -3   5         2
                71.37          1.18        1.3216    0  -6   4         2
                71.43          1.10        1.3206    3   1   3         2
                71.60          1.07        1.3179   -6   2   3         2
                72.89          1.63        1.2978   -1   9   2         2
                73.20          3.07        1.2931    2  -8   2         2
                73.97          1.00        1.2814   -6   0   4         2
                74.73          1.08        1.2702    4  -4   2         2
                74.82          1.48        1.2690    2   0   4         2
                74.84          1.11        1.2686   -3   9   1         2
                75.05          1.31        1.2657   -4   8   1         2
                75.06          1.07        1.2656    0  -2   5         2
                75.33          4.26        1.2616   -4  -8   2         2
                75.70          2.11        1.2564   -6   4   2         2
                75.87          3.48        1.2540   -4   8   2         2
                76.44          2.36        1.2460   -6  -4   3         2
                76.70          1.48        1.2425   -5  -3   5         2
                76.87          1.05        1.2402    0   8   3         2
                77.15          1.91        1.2364   -4   4   5         2
                78.21          3.66        1.2223    6   0   0         2
                78.24          1.33        1.2218    4   4   2         2
                78.61          4.24        1.2171    2   8   2         2
                79.12          1.87        1.2105   -3   5   5         2
                80.49          1.16        1.1933    6   2   0         2
                81.71          1.00        1.1785   -4  -6   5         2
                82.44          1.07        1.1699   -1   5   5         2
                82.66          1.37        1.1673    1  -7   4         2
                82.76          1.83        1.1662   -3   9   3         2
                83.61          2.20        1.1565    3   5   3         2
                83.69          2.38        1.1556   -6   4   0         2
                84.13          1.40        1.1506   -5  -7   4         2
                84.56          2.10        1.1459   -2   6   5         2
                85.42          1.14        1.1366   -1  -9   4         2
                86.04          1.31        1.1300   -1 -11   2         2
                86.07          2.03        1.1297    6   4   0         2
                86.10          1.45        1.1293   -3  -9   4         2
================================================================================
       XPOW Copyright 1993 Bob Downs, Ranjini Swaminathan and Kurt Bartelmehs
  For reference, see Downs et al. (1993) American Mineralogist 78, 1104-1107.
_END_
      Anorthite
      Angel R J, Carpenter M A, Finger L W
      American Mineralogist 75 (1990) 150-162
      Structural variation associated with compositional variation and order-disorder
      behavior in anorthite-rich feldspars
      sample from Monte Somma
      _database_code_amcsd 0001287

      CELL PARAMETERS:   8.1796 12.8747 14.1720   93.134  115.885   91.236
      SPACE GROUP: P-1
      X-RAY WAVELENGTH:     1.541838
      MAX. ABS. INTENSITY / VOLUME**2:      4.64549
               2-THETA      INTENSITY    D-SPACING   H   K   L   Multiplicity
                13.00          8.42        6.8075   -1  -1   1         2
                13.58         10.77        6.5222   -1   1   0         2
                13.79          2.82        6.4195    0   2   0         2
                15.01          1.16        5.9025    0  -2   1         2
                17.33          2.54        5.1164    1  -1   1         2
                17.73          1.55        5.0014   -1  -2   1         2
                18.93         17.74        4.6878    0  -2   2         2
                20.73          1.07        4.2853    1  -2   1         2
                20.96          1.97        4.2392    0   0   3         2
                22.00         61.81        4.0405   -2   0   2         2
                22.72         13.48        3.9145    1  -1   2         2
                23.05          1.06        3.8581   -1  -2   3         2
                23.52         32.53        3.7825   -1   3   0         2
                23.62          4.72        3.7660   -1  -3   1         2
                23.69         19.16        3.7557    1   1   2         2
                24.11          1.28        3.6911   -2   0   3         2
                24.32          1.11        3.6594    0  -2   3         2
                24.59         40.55        3.6196    1   3   0         2
                24.71         12.64        3.6024   -1  -3   2         2
                25.36          3.56        3.5115   -1   3   2         2
                25.64          3.79        3.4743    1  -3   1         2
                25.75         14.81        3.4595   -1  -1   4         2
                25.93          1.82        3.4356   -2   2   2         2
                26.00          1.07        3.4270    0   2   3         2
                26.18          7.47        3.4037   -2  -2   2         2
                26.50         32.22        3.3635   -1   1   4         2
                27.35         62.88        3.2611   -2   2   0         2
                27.63          1.44        3.2280   -1  -3   3         2
                27.79         53.17        3.2097    0   4   0         2
                27.92        100.00        3.1958   -2   0   4         2
                28.06         91.53        3.1794    0   0   4         2
                28.59         48.30        3.1218    2   2   0         2
                29.37         22.72        3.0407    1  -3   2         2
                30.28         33.75        2.9512    0  -4   2         2
                30.47         21.09        2.9335    0  -2   4         2
                30.91          8.03        2.8930   -2  -2   4         2
                31.64         27.70        2.8277    1   3   2         2
                31.92         10.55        2.8033   -1  -3   4         2
                32.19          1.54        2.7810    2   2   1         2
                32.88          1.65        2.7237   -2   0   5         2
                33.49          1.60        2.6760   -3   1   2         2
                33.75         17.35        2.6560   -1   3   4         2
                33.81          1.42        2.6515    0  -4   3         2
                35.08          4.94        2.5582    2  -2   2         2
                35.11          1.87        2.5560   -3  -1   1         2
                35.29          1.76        2.5431   -2  -2   5         2
                35.51          7.30        2.5280    1  -1   4         2
                35.54         21.71        2.5260   -2   4   2         2
                35.78          4.41        2.5099   -3  -1   4         2
                35.84          1.50        2.5056   -3   1   4         2
                35.91         36.30        2.5007   -2  -4   2         2
                36.22          1.27        2.4804   -2   4   0         2
                36.33          1.24        2.4731   -2   2   5         2
                36.84          1.06        2.4400   -1  -5   1         2
                36.88          4.27        2.4371    2   2   2         2
                37.01          4.19        2.4292   -3   1   0         2
                37.38          4.09        2.4058   -1  -5   2         2
                37.69          1.42        2.3868    1   5   0         2
                37.73          3.49        2.3843    3   1   0         2
                38.13          3.91        2.3603   -1   5   2         2
                38.15          2.42        2.3590    2   4   0         2
                38.76          7.89        2.3235   -3   3   2         2
                38.77          1.37        2.3227   -3  -1   5         2
                39.01          1.61        2.3090    0   2   5         2
                39.26          2.62        2.2945   -1  -5   3         2
                39.71          4.93        2.2700   -3  -3   2         2
                39.81          4.26        2.2644   -1   1   6         2
                39.90          1.46        2.2595    1  -3   4         2
                40.29          4.41        2.2384    1  -5   2         2
                40.37          3.04        2.2340   -2   4   4         2
                40.99          1.05        2.2018   -3  -3   1         2
                41.21          1.18        2.1907   -3   3   4         2
                41.37          1.16        2.1824    0   4   4         2
                41.54          2.27        2.1741   -3   3   0         2
                41.84          3.22        2.1592   -2   2   6         2
                42.18         17.74        2.1426    2  -4   2         2
                42.23          9.15        2.1398    0   6   0         2
                42.46          1.68        2.1290    1  -1   5         2
                42.70          2.95        2.1177   -2  -4   5         2
                43.17         13.31        2.0954    1   5   2         2
                43.24          1.50        2.0925   -3   1   6         2
                43.48          1.00        2.0812    3   3   0         2
                43.81          2.32        2.0665    0  -4   5         2
                43.94          1.14        2.0606    1  -5   3         2
                44.73          2.39        2.0258   -1   5   4         2
                44.86          2.68        2.0203   -4   0   4         2
                44.95          4.82        2.0167   -4   0   2         2
                45.22          2.71        2.0050    3  -1   2         2
                45.52          2.95        1.9925   -1   3   6         2
                45.69          4.14        1.9858    0   6   2         2
                46.14          1.17        1.9675    0  -6   3         2
                46.17          2.87        1.9662    3   1   2         2
                46.39          2.45        1.9573    2  -2   4         2
                46.48          1.23        1.9537   -2  -2   7         2
                46.67          1.00        1.9462    2  -4   3         2
                46.94          1.01        1.9357   -1   1   7         2
                47.01         10.63        1.9328   -4   2   4         2
                47.12          1.65        1.9286   -3  -3   6         2
                47.31          4.33        1.9214   -4  -2   4         2
                47.71          2.06        1.9061   -4  -2   2         2
                48.09          1.87        1.8920   -3   5   2         2
                48.11          3.50        1.8912   -2   6   0         2
                48.34          1.92        1.8830   -2  -6   2         2
                48.48          8.29        1.8779    2   2   4         2
                48.81          1.79        1.8659   -4  -2   5         2
                48.82          1.94        1.8655    3  -3   2         2
                49.28          1.49        1.8491   -3  -5   3         2
                49.37          2.11        1.8459   -2   4   6         2
                49.38         10.37        1.8455   -4   0   6         2
                49.62         17.07        1.8374    4   0   0         2
                49.63          2.54        1.8369    0  -6   4         2
                49.70          3.34        1.8345    1  -1   6         2
                49.84          2.14        1.8297    0  -4   6         2
                50.42          4.97        1.8098    2   6   0         2
                50.48          1.84        1.8078   -3   5   4         2
                50.68          4.60        1.8012   -2  -6   4         2
                50.68          3.54        1.8011   -1   7   0         2
                50.82          9.60        1.7967    1   1   6         2
                51.28          1.00        1.7817    0  -2   7         2
                51.45          1.69        1.7760   -1  -7   2         2
                51.46          1.82        1.7757    3   3   2         2
                51.68         23.97        1.7688   -2   0   8         2
                51.93          7.32        1.7607    2  -4   4         2
                52.09          1.18        1.7558   -2   6   4         2
                52.27          2.81        1.7502   -1   7   2         2
                52.53          2.61        1.7422    1   5   4         2
                52.69          2.43        1.7372    2  -6   2         2
                52.78          1.19        1.7344   -1  -7   3         2
                52.81          4.18        1.7335   -4   4   2         2
                52.93          3.06        1.7298   -2  -2   8         2
                53.28          3.82        1.7194    0   6   4         2
                53.33          4.14        1.7178   -4   4   4         2
                53.48          2.81        1.7135    0   4   6         2
                53.87          5.26        1.7019   -4  -4   4         2
                54.00          1.54        1.6981    0  -6   5         2
                54.53          1.92        1.6828   -4  -4   2         2
                54.57          4.81        1.6818   -2   2   8         2
                55.26          1.55        1.6624   -3  -5   6         2
                55.74          2.67        1.6493    2   4   4         2
                56.30          1.40        1.6341    3  -5   2         2
                56.42          1.31        1.6308   -1  -3   8         2
                56.59          1.27        1.6264    2   6   2         2
                56.78          1.90        1.6213   -3  -3   8         2
                56.92          4.58        1.6178   -3   5   6         2
                57.31          1.55        1.6077   -4  -4   6         2
                57.42          3.15        1.6049    0   8   0         2
                58.04          1.68        1.5891    4   0   2         2
                58.06          1.90        1.5887   -5   1   2         2
                58.28          1.02        1.5831    0  -8   2         2
                58.84          2.33        1.5694    0  -2   8         2
                59.20          1.70        1.5607   -4  -2   8         2
                59.37          2.49        1.5568    3  -3   4         2
                59.59          2.58        1.5513   -3  -1   9         2
                59.85          1.48        1.5454    2  -2   6         2
                59.97          1.53        1.5425    1  -7   4         2
                60.05          2.08        1.5406   -4   2   8         2
                60.19          1.23        1.5374   -5   3   4         2
                60.27          3.56        1.5355    3   5   2         2
                60.94          1.99        1.5204    2  -6   4         2
                61.04          1.24        1.5181    0   2   8         2
                61.06          1.50        1.5177   -1  -1   9         2
                61.07          1.64        1.5174   -5  -3   4         2
                61.20          1.50        1.5144   -2   4   8         2
                61.91          6.01        1.4988   -2   8   0         2
                62.21          6.09        1.4923   -4   6   2         2
                62.49          5.22        1.4863   -2  -8   2         2
                62.50          1.90        1.4860    3   3   4         2
                62.91          3.07        1.4774   -5   3   6         2
                62.94          5.19        1.4766   -4   6   4         2
                62.96          3.89        1.4762   -5  -3   6         2
                62.99          1.32        1.4757   -5  -3   2         2
                62.99          1.68        1.4756    0  -8   4         2
                63.67          1.01        1.4615   -4  -6   4         2
                63.99          7.98        1.4550    0   6   6         2
                64.32          3.51        1.4483    2  -4   6         2
                64.53          3.10        1.4442    2   8   0         2
                65.05          1.52        1.4339    3   7   0         2
                65.14          1.13        1.4320   -5  -1   8         2
                65.23          2.00        1.4302   -4   6   0         2
                65.39          2.17        1.4273   -5   1   8         2
                65.58          1.46        1.4236    2  -8   2         2
                66.08          3.90        1.4139    2   6   4         2
                66.32          1.45        1.4094    1   1   8         2
                66.32          1.04        1.4094   -3  -7   6         2
                67.26          1.08        1.3919    2  -2   7         2
                67.34          2.94        1.3905    4   4   2         2
                67.38          3.77        1.3898   -4   6   6         2
                67.51          4.36        1.3874    1   9   0         2
                67.53          6.80        1.3871    1  -3   8         2
                68.14          4.32        1.3762    1  -9   2         2
                68.50          4.16        1.3698   -5  -3   8         2
                68.54          1.56        1.3691    5   3   0         2
                68.71          3.34        1.3661    2   4   6         2
                68.95          3.91        1.3619   -4   0  10         2
                69.03          8.12        1.3606   -6   0   4         2
                69.04          2.43        1.3604    4   6   0         2
                69.40          7.35        1.3542    4   0   4         2
                69.71          5.74        1.3490   -1  -9   4         2
                70.03          1.54        1.3436    4  -2   4         2
                70.07          1.74        1.3428   -4  -2  10         2
                70.10          2.31        1.3424   -5   5   6         2
                70.15          2.00        1.3415    2   8   2         2
                70.23          2.98        1.3403   -1   1  10         2
                70.72          1.14        1.3322   -5  -5   2         2
                71.11          1.70        1.3258    0  -8   6         2
                71.21          1.11        1.3241   -6  -2   4         2
                71.35          1.17        1.3220    0  -6   8         2
                71.37          1.41        1.3215    3   1   6         2
                71.41          1.16        1.3209   -6   2   6         2
                71.52          2.58        1.3192   -1  -3  10         2
                72.71          2.65        1.3006    2  -8   4         2
                72.84          1.85        1.2985   -1   9   4         2
                72.90          1.09        1.2976   -4  -6   8         2
                74.13          1.27        1.2791    4  -4   4         2
                74.17          1.24        1.2785   -6   0   8         2
                74.27          2.59        1.2770   -3   9   2         2
                74.31          1.38        1.2764   -4   8   2         2
                74.74          2.03        1.2701    2   0   8         2
                75.14          2.25        1.2644   -6   4   4         2
                75.23          2.93        1.2630   -4   8   4         2
                76.13          3.80        1.2503   -4  -8   4         2
                76.29          1.23        1.2482   -3  -9   4         2
                77.07          2.67        1.2374   -6  -4   6         2
                77.14          2.17        1.2366   -4   4  10         2
                77.31          1.13        1.2342   -5  -3  10         2
                77.34          1.16        1.2338   -6   4   2         2
                77.95          1.11        1.2256   -5   7   2         2
                78.01          3.70        1.2249    6   0   0         2
                78.49          1.04        1.2186    4   4   4         2
                78.80          1.46        1.2146   -6   2   0         2
                79.04          4.66        1.2115    2   8   4         2
                79.13          1.62        1.2103   -3   5  10         2
                80.58          1.41        1.1922    6   2   0         2
                82.39          2.36        1.1705   -3   9   6         2
                82.41          1.72        1.1703    1  -7   8         2
                82.46          1.13        1.1697   -4  -6  10         2
[...]
                55.08         10.56        1.6673    0   3   3         4
                56.34          2.66        1.6330    4   3   0         4
                56.55          2.18        1.6273    1   3   3         8
                57.14          3.76        1.6120    1   5   2         8
                58.60          1.71        1.5754    1   6   1         8
                58.77          4.10        1.5711    4   3   1         8
                58.90          3.71        1.5680    4   0   2         4
                59.68          1.95        1.5494    4   1   2         8
                60.46          1.37        1.5312    2   6   0         4
                62.02          2.13        1.4963    1   4   3         8
                62.79          2.79        1.4799    2   6   1         8
                64.22          7.21        1.4504    0   6   2         4
                64.70          7.53        1.4408    0   0   4         2
                65.07          2.84        1.4333    5   2   0         4
                65.11          4.28        1.4326    5   1   1         8
                65.73          5.20        1.4207    4   3   2         8
                66.09          1.70        1.4138    2   4   3         8
                66.14          1.03        1.4128    1   7   0         4
                67.05          2.75        1.3959    0   7   1         4
                68.49          1.26        1.3700    4   5   0         4
                69.46          3.43        1.3532    3   6   1         8
                69.52          4.88        1.3522    2   6   2         8
                70.27          1.49        1.3396    4   0   3         4
                72.60          2.98        1.3021    3   4   3         8
                72.82          2.98        1.2989    2   2   4         8
                73.84          3.58        1.2833    5   2   2         8
                75.82          1.71        1.2547    5   4   1         8
                76.30          1.32        1.2480    2   3   4         8
                76.58          1.40        1.2442    4   3   3         8
                77.04          1.98        1.2378    3   1   4         8
                77.31          1.54        1.2342    5   3   2         8
                81.09          1.19        1.1859    2   4   4         8
                81.98          2.96        1.1753    5   5   1         8
                82.09          1.10        1.1740    5   4   2         8
                82.27          1.77        1.1719    5   1   3         8
                83.87          1.68        1.1536    0   8   2         4
                84.05          1.31        1.1516    0   7   3         4
                84.77          3.01        1.1436    3   7   2         8
                85.00          1.25        1.1411    4   0   4         4
                85.44          1.41        1.1364    6   1   2         8
                89.51          2.05        1.0949    2   1   5         8
                89.69          1.18        1.0932    0   6   4         4
================================================================================
       XPOW Copyright 1993 Bob Downs, Ranjini Swaminathan and Kurt Bartelmehs
  For reference, see Downs et al. (1993) American Mineralogist 78, 1104-1107.
_END_
      Bassanite
      Bezou C, Nonat A, Mutin J C, Christensen A N, Lehmann M S
      Journal of Solid State Chemistry 117 (1995) 165-176
      Of the crystal structure of gamma-CaSO4, CaSO4*0.5(H2O), and CaSO4*0.6(H2O)
      by powder diffraction methods
      Locality: Maurienne, France
      Sample: SH1, neutron Diffraction
      _database_code_amcsd 0013868

      CELL PARAMETERS:  12.0317  6.9269 12.6712   90.000   90.270   90.000
      SPACE GROUP: I2
      X-RAY WAVELENGTH:     1.541838
      MAX. ABS. INTENSITY / VOLUME**2:      8.46423
               2-THETA      INTENSITY    D-SPACING   H   K   L   Multiplicity
                14.57          1.23        6.0780    0   1   1         2
                14.73         50.59        6.0158    2   0   0         2
                14.76         97.83        6.0031    1   1   0         2
                20.31          2.23        4.3728   -2   0   2         2
                20.40          4.35        4.3525    1   1   2         2
                20.75          1.15        4.2805   -2   1   1         2
                22.27          1.44        3.9911   -1   0   3         2
                22.34          4.08        3.9794    1   0   3         2
                24.69          4.32        3.6062    0   1   3         2
                25.67         58.59        3.4708    3   1   0         2
                25.72         24.56        3.4634    0   2   0         1
                27.70          2.92        3.2201   -1   2   1         2
                28.92          1.28        3.0875    2   1   3         2
                29.29          5.24        3.0492   -3   1   2         2
                29.39          6.36        3.0390    0   2   2         2
                29.39          5.26        3.0387    3   1   2         2
                29.70         50.72        3.0079    4   0   0         2
                29.77        100.00        3.0015    2   2   0         2
                31.87         17.36        2.8084   -2   0   4         2
                31.91         74.14        2.8043   -1   1   4         2
                31.98         26.51        2.7989    1   1   4         2
                31.99         40.66        2.7975    2   0   4         2
                32.99         11.45        2.7150   -2   2   2         2
                33.03          3.47        2.7123    4   0   2         2
                34.33          1.21        2.6125    1   2   3         2
                38.39          3.44        2.3445   -3   1   4         2
                38.51          4.84        2.3375    0   2   4         2
                38.56          3.63        2.3350    3   1   4         2
                39.07          1.03        2.3053    4   1   3         2
                39.65          2.37        2.2731    5   1   0         2
                39.68          1.25        2.2716    0   3   1         2
                39.69          1.84        2.2710    4   2   0         2
                39.75          2.56        2.2676    1   3   0         2
                40.56          2.83        2.2242    3   2   3         2
                40.84          1.60        2.2097    2   1   5         2
                41.39          4.30        2.1814   -2   2   4         2
                41.50          2.98        2.1761    4   0   4         2
                42.23          9.35        2.1402   -4   2   2         2
                42.30          9.24        2.1365    5   1   2         2
                42.32          9.43        2.1356   -1   3   2         2
                42.33          1.18        2.1354    4   2   2         2
                42.53          1.40        2.1257   -2   3   1         2
                42.82         15.89        2.1118    0   0   6         2
                44.73          1.38        2.0260    0   3   3         2
                45.32          2.08        2.0010    3   3   0         2
                46.54          1.50        1.9514    5   2   1         2
                47.49          2.89        1.9144   -6   0   2         2
                47.63          4.17        1.9094   -3   3   2         2
                47.63          1.44        1.9092    6   0   2         2
                47.69          4.76        1.9068    3   3   2         2
                49.23         30.71        1.8507   -5   1   4         2
                49.29          3.81        1.8488   -4   2   4         2
                49.41          1.82        1.8446   -1   3   4         2
                49.45         27.77        1.8431    1   3   4         2
                49.46          5.45        1.8429    5   1   4         2
                49.47         29.57        1.8426    4   2   4         2
                51.10          1.10        1.7873    5   2   3         2
                52.75          7.25        1.7354    6   2   0         2
                52.87          3.84        1.7317    0   4   0         1
                52.96          1.87        1.7291   -2   2   6         2
                54.01          1.52        1.6979   -6   0   4         2
                54.16         21.07        1.6936   -3   3   4         2
                54.25         10.88        1.6907    6   0   4         2
                54.28          2.16        1.6900    3   3   4         2
                55.05          6.39        1.6682    7   1   0         2
                55.13          6.89        1.6660    5   3   0         2
                55.19          5.14        1.6641    2   4   0         2
                57.26          1.08        1.6090    2   4   2         2
                59.82          1.26        1.5461   -1   3   6         2
                60.36          1.22        1.5335   -2   0   8         2
                60.41          1.50        1.5324   -1   1   8         2
                60.49          3.43        1.5306    1   1   8         2
                60.75          1.16        1.5246   -6   2   4         2
                60.98          1.79        1.5195    0   4   4         2
                60.98          1.07        1.5194    6   2   4         2
                61.82          1.47        1.5008    4   4   0         2
                62.84          3.00        1.4788   -7   1   4         2
                63.07          1.08        1.4740   -2   4   4         2
                63.14          1.62        1.4726    5   3   4         2
                63.14          2.96        1.4724    2   4   4         2
                64.03          1.30        1.4542   -3   3   6         2
                64.58          2.72        1.4432   -3   1   8         2
                64.72          1.64        1.4404    0   2   8         2
                64.80          2.10        1.4387    3   1   8         2
                69.00          1.69        1.3611   -8   0   4         2
                69.35          3.50        1.3550    4   4   4         2
                71.93          2.22        1.3126    9   1   0         2
                72.06          1.99        1.3106    6   4   0         2
                72.13          2.04        1.3095    3   5   0         2
                72.66          6.12        1.3013   -4   2   8         2
                72.81          7.04        1.2990   -1   3   8         2
                72.95          6.30        1.2968    5   1   8         2
                75.03          4.70        1.2659   -7   3   4         2
                75.25          4.14        1.2628    8   2   4         2
                75.27          4.26        1.2625   -1   5   4         2
                76.46          4.34        1.2458   -6   0   8         2
                76.85          7.22        1.2405    3   3   8         2
                78.80          1.57        1.2146   -9   1   4         2
                79.10          1.07        1.2107    9   1   4         2
                79.17          1.52        1.2098    6   4   4         2
                79.20          1.50        1.2095    3   5   4         2
                82.24          1.10        1.1723   -6   2   8         2
                82.54          1.10        1.1688    0   4   8         2
                82.65          1.61        1.1675    6   2   8         2
                83.57          4.74        1.1569    9   3   0         2
                83.79          1.95        1.1545    0   6   0         1
                84.08          1.30        1.1513   -7   1   8         2
                84.21          1.22        1.1498   -5   3   8         2
                84.50          1.51        1.1466    2   4   8         2
                85.52          1.29        1.1355    8   4   0         2
                86.65          3.38        1.1236   -5   5   4         2
                86.70          1.53        1.1230   10   0   4         2
                89.95          1.51        1.0907   -4   4   8         2
================================================================================
       XPOW Copyright 1993 Bob Downs, Ranjini Swaminathan and Kurt Bartelmehs
  For reference, see Downs et al. (1993) American Mineralogist 78, 1104-1107.
_END_
      Clinoenstatite
      Tribaudino M, Nestola F, Camara F, Domeneghetti M C
      American Mineralogist 87 (2002) 648-657
      The high-temperature P2_1/c - C2/c phase transition in Fe-free pyroxene
      (Ca.15Mg1.85Si2O6): Structural and thermodynamic behavior
      Sample: dien2, T = 25 deg C
      _database_code_amcsd 0002801

      CELL PARAMETERS:   9.6510  8.8460  5.2020   90.000  108.380   90.000
      SPACE GROUP: P2_1/c
      X-RAY WAVELENGTH:     1.541838
      MAX. ABS. INTENSITY / VOLUME**2:      8.90218
               2-THETA      INTENSITY    D-SPACING   H   K   L   Multiplicity
                20.08          6.95        4.4230    0   2   0         2
                20.60          5.86        4.3108    0   1   1         4
                25.14          1.80        3.5426    1   1   1         4
                26.76          2.51        3.3310   -1   2   1         4
                27.07         35.36        3.2942    0   2   1         4
                28.05         34.99        3.1814    2   2   0         4
                29.89        100.00        2.9889   -2   2   1         4
                30.72          1.78        2.9109    1   2   1         4
                30.88         27.20        2.8957   -3   1   1         4
                30.99         57.99        2.8859    3   1   0         4
                31.88          1.25        2.8068    1   3   0         4
                35.22         23.70        2.5481   -1   3   1         4
                35.46          7.90        2.5316   -2   0   2         2
                35.46          6.78        2.5315    0   3   1         4
                36.40         42.60        2.4683    0   0   2         2
                36.81         22.21        2.4417    2   2   1         4
                37.72          8.43        2.3848   -2   3   1         4
                40.64          8.23        2.2197    3   1   1         4
                40.75          7.20        2.2143    1   0   2         2
                42.06          7.58        2.1480    1   1   2         4
                42.55         29.88        2.1248   -3   3   1         4
                42.63          1.76        2.1209    3   3   0         4
                43.11          4.75        2.0984   -4   2   1         4
                44.27          1.88        2.0461   -3   2   2         4
                44.70          8.61        2.0274   -4   0   2         2
                44.72          1.29        2.0266   -1   4   1         4
                44.91          8.77        2.0182    0   4   1         4
                45.55          3.67        1.9914    2   4   0         4
                45.92          2.88        1.9761   -4   1   2         4
                46.79          6.76        1.9415   -2   4   1         4
                47.01          6.48        1.9331    2   0   2         2
                49.15          2.31        1.8538   -4   3   1         4
                50.91          5.38        1.7937    5   1   0         4
                50.92          1.19        1.7933   -3   4   1         4
                51.60          7.24        1.7713    2   2   2         4
                51.75          1.82        1.7665   -5   2   1         4
                51.80          3.24        1.7648    2   4   1         4
                52.69          7.54        1.7371    1   5   0         4
                53.31          1.79        1.7183    4   2   1         4
                55.14          2.72        1.6655   -2   4   2         4
                55.15          1.46        1.6655    0   5   1         4
                55.42          2.50        1.6578   -3   1   3         4
                55.76          6.46        1.6487    3   1   2         4
                55.81          2.57        1.6471    0   4   2         4
                57.10         23.67        1.6130   -5   3   1         4
                57.11         18.72        1.6129   -2   2   3         4
                57.60          1.18        1.6003   -1   2   3         4
                57.93          1.04        1.5918    3   4   1         4
                57.98          1.88        1.5907    4   4   0         4
                58.57          1.10        1.5761    4   3   1         4
                60.41          4.97        1.5322   -6   0   2         2
                60.42          2.38        1.5322   -3   5   1         4
                60.48          4.41        1.5307    3   5   0         4
                60.67          4.34        1.5264    6   0   0         2
                62.15          9.01        1.4935   -2   3   3         4
                62.62         10.64        1.4835   -1   3   3         4
                63.05         14.63        1.4743    0   6   0         2
                63.54          3.30        1.4642    4   0   2         2
                63.88          1.31        1.4573   -5   1   3         4
                63.97          1.26        1.4554    2   4   2         4
                64.34          2.08        1.4478   -6   2   2         4
                64.84          3.05        1.4380    0   5   2         4
                66.60          3.04        1.4041   -3   5   2         4
                66.75          1.64        1.4013   -5   2   3         4
                66.78          1.08        1.4008    3   5   1         4
                67.80          1.02        1.3822    1   5   2         4
                67.83         28.15        1.3817    5   3   1         4
                68.85          4.99        1.3636   -2   4   3         4
                68.87          3.87        1.3633    1   3   3         4
                69.87          1.17        1.3462    2   2   3         4
                69.96          3.30        1.3447   -7   0   2         2
                70.88          7.29        1.3294   -7   1   2         4
                71.41          2.92        1.3209   -5   3   3         4
                71.46          2.02        1.3202    0   4   3         4
                73.08          2.96        1.2948   -3   0   4         2
                73.11          2.08        1.2943    7   1   0         4
                73.72          1.96        1.2852   -2   1   4         4
                74.36          2.61        1.2757    5   1   2         4
                74.47          2.52        1.2740   -2   6   2         4
                74.57          1.35        1.2725    5   5   0         4
                75.04          3.14        1.2658   -4   0   4         2
                75.04          8.94        1.2657    0   6   2         4
                75.94          1.04        1.2530   -4   1   4         4
                76.34          2.11        1.2475   -7   3   1         4
                78.20          1.56        1.2223    0   1   4         4
                78.29          1.68        1.2212   -3   5   3         4
                78.57          6.34        1.2175    3   5   2         4
                80.56          1.66        1.1924   -4   6   2         4
                81.51          1.29        1.1809    3   3   3         4
                82.17          1.36        1.1730   -5   2   4         4
                82.24          1.15        1.1723    2   6   2         4
                84.66          1.09        1.1448    8   0   0         2
================================================================================
       XPOW Copyright 1993 Bob Downs, Ranjini Swaminathan and Kurt Bartelmehs
  For reference, see Downs et al. (1993) American Mineralogist 78, 1104-1107.
_END_