File: desktop/XRD_data/Mix1A-film.txt
#InstrumentID: BTX.359
#DatasetName: Mix1A
#SampleInfo:
#AcquisitionDate: 12/12/13 22:07:16
#IntegrationTime: 400 seconds
#GeometryParams: axisX = -68.5142 axisY = 134 axisZ = 1194.7 sensorAngle1 = -29.0823 sensorAngle3 = 0
#EnergyParams: splitThreshold = 12 CoKaPeak = 1281 kBFilterIn = 1
5	199.02
5.05	194.583
5.1	214.136
5.15	227.818
5.2	196.723
5.25	202.281
5.3	171.58
5.35	230.769
5.4	218.66
5.45	211.184
5.5	242.035
5.55	226.099
5.6	215.318
5.65	256.736
5.7	265.935
5.75	245.215
5.8	222.132
5.85	243.43
5.9	225.686
5.95	266.39
6	249.185
6.05	286.622
6.1	295.246
6.15	340.817
6.2	337.629
6.25	331.864
6.3	306.401
6.35	338.252
6.4	279.65
6.45	342.254
6.5	360.544
6.55	337.529
6.6	306.883
6.65	350.266
6.7	275.689
6.75	301.541
6.8	321.678
6.85	303.646
6.9	294.872
6.95	309.301
7	285.237
7.05	235.974
7.1	244.943
7.15	244.176
7.2	217.728
7.25	249.93
7.3	250.242
7.35	239.221
7.4	224.758
7.45	269.848
7.5	228.193
7.55	222.065
7.6	247.183
7.65	269.084
7.7	230.221
7.75	268.882
7.8	216.755
7.85	226.972
7.9	256.527
7.95	215.277
8	257.167
8.05	243.189
8.1	240.865
8.15	201.219
8.2	223.855
8.25	218.406
8.3	188.946
8.35	246.137
8.4	246.665
8.45	233.769
8.5	219.192
8.55	210.803
8.6	230.2
8.65	235
8.7	264.178
8.75	184.132
8.8	229.765
8.85	228.262
8.9	201.99
8.95	249.19
9	217.446
9.05	202.517
9.1	236.71
9.15	184.705
9.2	226.661
9.25	191.537
9.3	253.518
9.35	257.314
9.4	252.573
9.45	249.993
9.5	210.625
9.55	253.295
9.6	209.51
9.65	213.899
9.7	239.483
9.75	295.214
9.8	252.05
9.85	237.172
9.9	262.428
9.95	242.959
10	271.759
10.05	251.163
10.1	301.373
10.15	220.037
10.2	233.971
10.25	251.494
10.3	252.212
10.35	288.693
10.4	295.418
10.45	251.335
10.5	237.185
10.55	257.374
10.6	234.243
10.65	195.677
10.7	287.588
10.75	244.878
10.8	236.999
10.85	244.551
10.9	214.916
10.95	259.184
11	243.914
11.05	207.942
11.1	238.281
11.15	272.004
11.2	251.493
11.25	230.482
11.3	234.914
11.35	260.654
11.4	190.327
11.45	298.014
11.5	281.598
11.55	247.747
11.6	270.537
11.65	255.618
11.7	243.472
11.75	263.125
11.8	279.373
11.85	277.318
11.9	232.027
11.95	274.543
12	265.332
12.05	290.971
12.1	255.358
12.15	209.944
12.2	254.83
12.25	245.182
12.3	226.69
12.35	276.574
12.4	257.865
12.45	261.809
12.5	263.635
12.55	241.543
12.6	271.095
12.65	256.21
12.7	251.21
12.75	297
12.8	230.788
12.85	292.047
12.9	228.431
12.95	240.361
13	276.708
13.05	198.55
13.1	267.877
13.15	253.138
13.2	262.635
13.25	259.808
13.3	287.019
13.35	250.195
13.4	255.458
13.45	275.787
13.5	199.31
13.55	223.117
13.6	222.325
13.65	298.783
13.7	273.2
13.75	250.116
13.8	231.436
13.85	175.477
13.9	208.808
13.95	234.09
14	218.286
14.05	254.11
14.1	255.654
14.15	213.889
14.2	255.46
14.25	228.213
14.3	216.426
14.35	256.133
14.4	261.098
14.45	245.567
14.5	218.482
14.55	254.217
14.6	264.909
14.65	255.755
14.7	240.992
14.75	270.536
14.8	250.929
14.85	263.485
14.9	233.281
14.95	234.685
15	269.894
15.05	245.538
15.1	270.027
15.15	238.117
15.2	279.933
15.25	261.435
15.3	251.334
15.35	253.249
15.4	250.265
15.45	299.457
15.5	239.289
15.55	220.357
15.6	226.346
15.65	197.093
15.7	327.056
15.75	254.924
15.8	304.03
15.85	389.191
15.9	281.718
15.95	323.495
16	334.41
16.05	303.286
16.1	360.64
16.15	334.631
16.2	321.395
16.25	290.39
16.3	225.808
16.35	278.691
16.4	220.695
16.45	171.374
16.5	209.998
16.55	230.328
16.6	202.529
16.65	256.65
16.7	228.322
16.75	237.765
16.8	222.329
16.85	218.912
16.9	248.801
16.95	289.207
17	260.224
17.05	194.492
17.1	207.279
17.15	267.924
17.2	212.689
17.25	273.113
17.3	246.579
17.35	269.722
17.4	306.255
17.45	276.794
17.5	363.395
17.55	246.042
17.6	230.22
17.65	305.352
17.7	191.572
17.75	235.688
17.8	190.685
17.85	176.489
17.9	167.334
17.95	194.508
18	213.347
18.05	203.364
18.1	189.95
18.15	219.442
18.2	257.277
18.25	235.552
18.3	243.965
18.35	229.165
18.4	249.521
18.45	232.8
18.5	198.609
18.55	165.016
18.6	174.457
18.65	201.06
18.7	190.604
18.75	250.724
18.8	178.386
18.85	201.262
18.9	181.964
18.95	212.189
19	177.252
19.05	177.417
19.1	194.557
19.15	195.119
19.2	243.251
19.25	176.407
19.3	183.06
19.35	166.035
19.4	162.104
19.45	165.907
19.5	212.734
19.55	196.905
19.6	167.006
19.65	186.334
19.7	185.384
19.75	144.071
19.8	210.343
19.85	174.306
19.9	168.386
19.95	156.011
20	201.926
20.05	202.413
20.1	205.381
20.15	192.75
20.2	132.883
20.25	218.94
20.3	138.61
20.35	198.146
20.4	231.207
20.45	144.407
20.5	199.618
20.55	155.062
20.6	186.179
20.65	207.808
20.7	138.752
20.75	167.867
20.8	148.275
20.85	199.133
20.9	151.295
20.95	205.613
21	170.054
21.05	190.22
21.1	167.682
21.15	163.582
21.2	166.165
21.25	193.323
21.3	208.452
21.35	170.053
21.4	172.882
21.45	194.971
21.5	167.357
21.55	138.717
21.6	160.701
21.65	164.197
21.7	126.652
21.75	154.975
21.8	181.245
21.85	123.393
21.9	147.768
21.95	168.403
22	198.08
22.05	176.735
22.1	165.574
22.15	136.224
22.2	187.153
22.25	155.924
22.3	154.863
22.35	197.266
22.4	184.143
22.45	217.357
22.5	165.832
22.55	107.165
22.6	166.655
22.65	141.994
22.7	170.229
22.75	103.687
22.8	215.284
22.85	144.059
22.9	136.831
22.95	106.731
23	186.454
23.05	120.895
23.1	151.779
23.15	172.698
23.2	141.028
23.25	154.78
23.3	177.093
23.35	141.085
23.4	139.97
23.45	192.243
23.5	162.415
23.55	124.125
23.6	153.876
23.65	116.128
23.7	214.34
23.75	187.665
23.8	231.272
23.85	208.791
23.9	232.361
23.95	231.192
24	373.118
24.05	525.711
24.1	902.469
24.15	1247.68
24.2	1582.37
24.25	1676.4
24.3	1920.47
24.35	1660.06
24.4	1380.57
24.45	1250.1
24.5	858.338
24.55	632.111
24.6	495.425
24.65	365.936
24.7	327.21
24.75	225.73
24.8	214.818
24.85	186.177
24.9	193.695
24.95	150.963
25	119.962
25.05	186.28
25.1	145.93
25.15	163.795
25.2	196.264
25.25	168.012
25.3	208.251
25.35	205.374
25.4	221.966
25.45	258.378
25.5	332.696
25.55	466.515
25.6	596.914
25.65	551.684
25.7	524.942
25.75	449.89
25.8	436.29
25.85	318.264
25.9	246.274
25.95	300.719
26	241.865
26.05	269.986
26.1	214.822
26.15	202.51
26.2	200.673
26.25	172.513
26.3	201.744
26.35	238.869
26.4	218.964
26.45	182.152
26.5	174.977
26.55	202.52
26.6	207.099
26.65	217.889
26.7	215.914
26.75	267.262
26.8	305.809
26.85	387.844
26.9	350.909
26.95	340.33
27	399.269
27.05	319.782
27.1	347.531
27.15	307.053
27.2	295.876
27.25	276.674
27.3	319.516
27.35	295.907
27.4	410.797
27.45	350.945
27.5	303.877
27.55	311.167
27.6	282.002
27.65	254.879
27.7	294.28
27.75	280.727
27.8	346.71
27.85	378.875
27.9	431.255
27.95	408.303
28	402.132
28.05	415.05
28.1	445.375
28.15	411.857
28.2	478.98
28.25	508.065
28.3	533.71
28.35	380.557
28.4	369.082
28.45	277.951
28.5	264.549
28.55	245.486
28.6	189.841
28.65	233.063
28.7	260.456
28.75	171.174
28.8	201.189
28.85	183.542
28.9	234.975
28.95	175.812
29	196.185
29.05	165.631
29.1	164.026
29.15	161.135
29.2	158.615
29.25	173.859
29.3	183.55
29.35	217.979
29.4	163.497
29.45	166.53
29.5	251.547
29.55	305.801
29.6	338.112
29.65	352.053
29.7	458.03
29.75	479.048
29.8	444.063
29.85	417.711
29.9	425.221
29.95	339.53
30	268.985
30.05	216.99
30.1	197.008
30.15	165.49
30.2	182.827
30.25	255.822
30.3	174.016
30.35	205.027
30.4	234.703
30.45	287.808
30.5	303.366
30.55	365.148
30.6	440.527
30.65	542.99
30.7	725.036
30.75	1044.99
30.8	1607.75
30.85	2716.06
30.9	4099.66
30.95	5467.05
31	6459.76
31.05	6837.53
31.1	6188.16
31.15	5135.9
31.2	3322.86
31.25	1963.12
31.3	1054.66
31.35	710.47
31.4	608.263
31.45	585.215
31.5	583.294
31.55	655.385
31.6	675.253
31.65	655.474
31.7	599.764
31.75	552.153
31.8	654.723
31.85	716.024
31.9	888.464
31.95	926.456
32	984.897
32.05	902.491
32.1	772.621
32.15	777.26
32.2	680.413
32.25	672.543
32.3	662.691
32.35	819.074
32.4	712.234
32.45	865.193
32.5	752.479
32.55	866.817
32.6	715.846
32.65	665.877
32.7	641.616
32.75	562.775
32.8	467.251
32.85	376.531
32.9	406.019
32.95	334.529
33	367.381
33.05	293.625
33.1	308.95
33.15	217.605
33.2	179.77
33.25	165.838
33.3	105.657
33.35	146.27
33.4	161.575
33.45	145.101
33.5	141.575
33.55	134.572
33.6	157.97
33.65	105.508
33.7	144.344
33.75	146.511
33.8	155.943
33.85	95.2825
33.9	115.388
33.95	135.48
34	126.65
34.05	133.751
34.1	181.653
34.15	126.763
34.2	234.807
34.25	273.151
34.3	208.794
34.35	233.843
34.4	261.826
34.45	189.605
34.5	199.677
34.55	181.417
34.6	158.696
34.65	162.779
34.7	211.163
34.75	172.393
34.8	188.107
34.85	184.28
34.9	218.517
34.95	219.787
35	313.847
35.05	363.718
35.1	385.417
35.15	353.782
35.2	389.332
35.25	382.585
35.3	360.666
35.35	325.972
35.4	280.593
35.45	297.319
35.5	265.201
35.55	262.758
35.6	267.613
35.65	256.59
35.7	251.254
35.75	237.888
35.8	286.09
35.85	275.64
35.9	280.672
35.95	206.62
36	244.582
36.05	290.628
36.1	228.057
36.15	200.296
36.2	169.412
36.25	150.297
36.3	160.373
36.35	169.995
36.4	145.62
36.45	108.881
36.5	107.763
36.55	174.626
36.6	129.278
36.65	128.789
36.7	165.615
36.75	124.156
36.8	107.233
36.85	86.2067
36.9	110.354
36.95	138.213
37	95.8274
37.05	110.238
37.1	126.232
37.15	124.317
37.2	106.198
37.25	95.0317
37.3	89.803
37.35	164.177
37.4	142.911
37.45	134.27
37.5	150.905
37.55	126.383
37.6	164.321
37.65	107.049
37.7	173.766
37.75	134.029
37.8	183.461
37.85	154.645
37.9	181.415
37.95	149.361
38	121.314
38.05	96.6568
38.1	87.9716
38.15	105.315
38.2	92.6556
38.25	76.6662
38.3	79.3563
38.35	75.9648
38.4	75.916
38.45	111.466
38.5	92.4946
38.55	120.263
38.6	112.566
38.65	61.3357
38.7	111.041
38.75	103.05
38.8	89.6196
38.85	77.6976
38.9	95.7386
38.95	66.209
39	68.415
39.05	111.768
39.1	123.661
39.15	62.3225
39.2	101.809
39.25	68.5643
39.3	80.0289
39.35	49.6893
39.4	90.8679
39.45	92.7818
39.5	108.894
39.55	115.691
39.6	173.585
39.65	138.94
39.7	145.304
39.75	140.349
39.8	202.6
39.85	195.141
39.9	194.437
39.95	173.197
40	183.776
40.05	174.375
40.1	175.368
40.15	140.637
40.2	158.849
40.25	159.932
40.3	126.524
40.35	163.915
40.4	184.331
40.45	128.251
40.5	171.419
40.55	138.552
40.6	159.704
40.65	154.213
40.7	175.997
40.75	193.014
40.8	208.756
40.85	204.759
40.9	205.123
40.95	235.343
41	237.791
41.05	174.257
41.1	185.554
41.15	163.851
41.2	156.937
41.25	147.494
41.3	200.764
41.35	145.475
41.4	156.577
41.45	222.232
41.5	171.31
41.55	214.784
41.6	201.453
41.65	167.26
41.7	184.88
41.75	128.649
41.8	134.795
41.85	81.916
41.9	108.95
41.95	100.584
42	105.368
42.05	125.277
42.1	96.1227
42.15	154.188
42.2	109.194
42.25	95.8925
42.3	91.2679
42.35	122.198
42.4	113.469
42.45	153.251
42.5	250.142
42.55	358.847
42.6	510.749
42.65	477.367
42.7	511.684
42.75	444.57
42.8	446.258
42.85	362.572
42.9	297.685
42.95	238.902
43	189.31
43.05	211.683
43.1	171.215
43.15	169.443
43.2	187.244
43.25	211.679
43.3	147.362
43.35	151.257
43.4	168.346
43.45	158.332
43.5	141.837
43.55	113.274
43.6	138.654
43.65	101.422
43.7	75.5973
43.75	119.019
43.8	157.098
43.85	140.227
43.9	103.744
43.95	117.726
44	125.731
44.05	126.463
44.1	137.264
44.15	80.0089
44.2	119.562
44.25	109.312
44.3	93.7209
44.35	88.0638
44.4	119.928
44.45	99.1742
44.5	99.9821
44.55	88.4019
44.6	110.758
44.65	99.7073
44.7	93.8434
44.75	98.7381
44.8	114.31
44.85	105.361
44.9	150.762
44.95	108.435
45	147.882
45.05	111.876
45.1	175.219
45.15	167.521
45.2	155.716
45.25	124.506
45.3	153.049
45.35	116.24
45.4	126.228
45.45	142.703
45.5	131.06
45.55	79.6873
45.6	117.767
45.65	130.876
45.7	102.344
45.75	110.637
45.8	87.0815
45.85	89.6255
45.9	147.888
45.95	255.658
46	295.76
46.05	374.05
46.1	476.247
46.15	510.698
46.2	491.393
46.25	403.725
46.3	369.167
46.35	283.528
46.4	173.008
46.45	164.057
46.5	126.466
46.55	74.3357
46.6	82.9114
46.65	78.7231
46.7	67.0195
46.75	82.0612
46.8	144.956
46.85	139.488
46.9	95.8932
46.95	126.76
47	201.855
47.05	246.702
47.1	259.777
47.15	269.609
47.2	246.668
47.25	213.55
47.3	184.862
47.35	145.489
47.4	163.06
47.45	120.288
47.5	97.9924
47.55	97.8896
47.6	107.361
47.65	122.288
47.7	80.2707
47.75	61.7707
47.8	82.5196
47.85	106.111
47.9	93.5797
47.95	62.6093
48	89.6392
48.05	113.852
48.1	101.592
48.15	136.334
48.2	83.164
48.25	109.865
48.3	109.659
48.35	144.641
48.4	100.561
48.45	134.858
48.5	81.3461
48.55	122.818
48.6	125.826
48.65	116.235
48.7	109.59
48.75	174.846
48.8	191.788
48.85	214.896
48.9	208.788
48.95	226.784
49	190.156
49.05	267.558
49.1	174.173
49.15	142.587
49.2	120.709
49.25	167.206
49.3	104.683
49.35	84.6089
49.4	111.929
49.45	105.773
49.5	239.257
49.55	243.036
49.6	309.364
49.65	354.37
49.7	370.449
49.75	414.879
49.8	315.176
49.85	232.2
49.9	267.077
49.95	231.925
50	172.047
50.05	136.704
50.1	126.96
50.15	143.87
50.2	86.7305
50.25	70.6979
50.3	104.99
50.35	110.799
50.4	77.5926
50.45	114.227
50.5	100.015
50.55	62.7094
50.6	122.225
50.65	75.6803
50.7	112.498
50.75	115.772
50.8	102.317
50.85	82.1746
50.9	98.0742
50.95	80.011
51	54.5261
51.05	67.542
51.1	88.9881
51.15	61.8967
51.2	122.65
51.25	113.698
51.3	95.566
51.35	75.0755
51.4	71.136
51.45	72.6236
51.5	97.4483
51.55	92.0773
51.6	70.646
51.65	128.524
51.7	84.0892
51.75	103.968
51.8	105.262
51.85	110.052
51.9	69.457
51.95	118.206
52	58.9808
52.05	112.937
52.1	169.123
52.15	118.186
52.2	100.005
52.25	93.3274
52.3	93.18
52.35	91.5639
52.4	112.116
52.45	61.0784
52.5	103.492
52.55	113.252
52.6	76.987
52.65	114.166
52.7	76.7923
52.75	109.954
52.8	91.0183
52.85	69.2763
52.9	105.828
52.95	120.451
53	113.255
53.05	68.4157
53.1	81.9719
53.15	102.634
53.2	126.099
53.25	116.632
53.3	87.1282
53.35	116.626
53.4	128.169
53.45	156.078
53.5	185.717
53.55	263.261
53.6	222.546
53.65	245.917
53.7	248.005
53.75	281.502
53.8	243.795
53.85	228.994
53.9	162.645
53.95	149.574
54	90.3466
54.05	114.031
54.1	117.118
54.15	107.526
54.2	90.3233
54.25	99.8205
54.3	127.741
54.35	130.989
54.4	88.9872
54.45	114.633
54.5	77.7182
54.55	108.981
54.6	120.358
54.65	75.0657
54.7	76.5737
54.75	77.1144
54.8	109.233
54.85	127.368
54.9	123.944