File: desktop/XRD_data/Mix3D-film.txt
#InstrumentID: BTX.359
#DatasetName: Mix3D
#SampleInfo:
#AcquisitionDate: 12/12/13 18:20:28
#IntegrationTime: 400 seconds
#GeometryParams: axisX = -68.5142 axisY = 134 axisZ = 1194.7 sensorAngle1 = -29.0823 sensorAngle3 = 0
#EnergyParams: splitThreshold = 12 CoKaPeak = 1294 kBFilterIn = 1
5	444.951
5.05	415.115
5.1	415.647
5.15	403.14
5.2	299.298
5.25	376.602
5.3	407.478
5.35	389.199
5.4	357.889
5.45	412.776
5.5	349.992
5.55	328.113
5.6	391.968
5.65	444.171
5.7	433.726
5.75	438.855
5.8	427.613
5.85	445.022
5.9	412.121
5.95	503.27
6	480.461
6.05	473.387
6.1	452.905
6.15	577.766
6.2	536.91
6.25	581.452
6.3	602.219
6.35	554.79
6.4	581.185
6.45	554.373
6.5	564.999
6.55	587.225
6.6	515.117
6.65	551.499
6.7	558.476
6.75	487.909
6.8	519.621
6.85	485.776
6.9	471.852
6.95	507.559
7	471.937
7.05	433.382
7.1	436.658
7.15	382.921
7.2	419.805
7.25	400.089
7.3	402.784
7.35	378.812
7.4	408.327
7.45	384.784
7.5	406.738
7.55	355.954
7.6	339.977
7.65	382.48
7.7	366.089
7.75	398.696
7.8	379.71
7.85	358.135
7.9	370.501
7.95	363.945
8	393.9
8.05	397.695
8.1	402.915
8.15	352.085
8.2	350.578
8.25	352.961
8.3	391.564
8.35	335.753
8.4	372.875
8.45	359.63
8.5	308.554
8.55	332.533
8.6	374.634
8.65	329.473
8.7	395.317
8.75	354.533
8.8	382.126
8.85	397.058
8.9	379.339
8.95	333.028
9	392.815
9.05	402.909
9.1	373.319
9.15	383.827
9.2	364.823
9.25	351.892
9.3	435.906
9.35	478.928
9.4	379.342
9.45	407.869
9.5	393.538
9.55	466.623
9.6	509.08
9.65	507.042
9.7	485.235
9.75	639.859
9.8	735.655
9.85	780.915
9.9	911.064
9.95	1009.66
10	1057.59
10.05	1127
10.1	1195.33
10.15	1249.75
10.2	926.37
10.25	912.753
10.3	770.062
10.35	642.151
10.4	599.04
10.45	468.353
10.5	468.159
10.55	443.926
10.6	477.194
10.65	383.6
10.7	376.084
10.75	374.111
10.8	350.113
10.85	403.355
10.9	341.78
10.95	377.818
11	351.712
11.05	424.449
11.1	405.898
11.15	444.425
11.2	427.534
11.25	429.821
11.3	448.651
11.35	450.418
11.4	505.319
11.45	480.724
11.5	443.072
11.55	429.702
11.6	461.559
11.65	370.471
11.7	379.756
11.75	365.649
11.8	325.616
11.85	386.764
11.9	379.926
11.95	432.821
12	449.806
12.05	457.466
12.1	556.843
12.15	504.619
12.2	559.537
12.25	524.809
12.3	466.24
12.35	362.477
12.4	437.195
12.45	372.074
12.5	366.582
12.55	382.853
12.6	346.982
12.65	377.22
12.7	293.73
12.75	327.023
12.8	364.941
12.85	333.364
12.9	343.774
12.95	409.351
13	331.042
13.05	330.807
13.1	358.201
13.15	359.368
13.2	388.616
13.25	359.32
13.3	374.442
13.35	375.78
13.4	380.514
13.45	349.004
13.5	320.526
13.55	340.102
13.6	340.148
13.65	316.319
13.7	305.338
13.75	333.826
13.8	364.61
13.85	346.145
13.9	352.313
13.95	302.515
14	332.529
14.05	378.107
14.1	351.869
14.15	402.691
14.2	318.5
14.25	321.574
14.3	385.429
14.35	318.285
14.4	314.308
14.45	308.37
14.5	351.969
14.55	345.879
14.6	341.659
14.65	327.667
14.7	333.328
14.75	286.416
14.8	368.781
14.85	329.11
14.9	285.099
14.95	310.922
15	331.63
15.05	316.582
15.1	310.598
15.15	331.83
15.2	343.907
15.25	335.231
15.3	305.818
15.35	331.528
15.4	330.868
15.45	338.63
15.5	331.194
15.55	327.85
15.6	352.135
15.65	301.336
15.7	401.751
15.75	352.233
15.8	330.351
15.85	383.748
15.9	395.926
15.95	433.506
16	477.974
16.05	392.527
16.1	468.662
16.15	449.701
16.2	435.734
16.25	410.598
16.3	397.941
16.35	380.16
16.4	324.796
16.45	348.659
16.5	317.568
16.55	333.222
16.6	370.014
16.65	378.697
16.7	325.409
16.75	351.883
16.8	313.566
16.85	302.378
16.9	333.974
16.95	337.926
17	346.933
17.05	354.797
17.1	337.927
17.15	337.631
17.2	389.337
17.25	291.295
17.3	373.955
17.35	384.674
17.4	364.602
17.45	400.69
17.5	407.084
17.55	288.38
17.6	294.209
17.65	341.7
17.7	325.656
17.75	293.478
17.8	299.257
17.85	258.303
17.9	261.251
17.95	348.883
18	296.454
18.05	276.484
18.1	293.112
18.15	302.087
18.2	258.337
18.25	290.035
18.3	281.186
18.35	329.163
18.4	339.374
18.45	339.195
18.5	342.191
18.55	308.591
18.6	254.764
18.65	370.812
18.7	317.011
18.75	279.409
18.8	317.514
18.85	339.28
18.9	325.587
18.95	265.724
19	309.945
19.05	310.937
19.1	261.066
19.15	315.119
19.2	298.619
19.25	306.989
19.3	364.1
19.35	311.406
19.4	288.374
19.45	259.576
19.5	289.488
19.55	319.681
19.6	259.211
19.65	309.527
19.7	265.465
19.75	226.123
19.8	296.651
19.85	264.661
19.9	335.675
19.95	312.054
20	342.981
20.05	273.051
20.1	358.917
20.15	330.736
20.2	261.563
20.25	321.541
20.3	366.627
20.35	286.861
20.4	315.875
20.45	357.944
20.5	242.082
20.55	316.074
20.6	303.167
20.65	325.325
20.7	232.148
20.75	280.691
20.8	265.749
20.85	360.885
20.9	375.009
20.95	424.884
21	449.214
21.05	509.179
21.1	434.205
21.15	378.199
21.2	313.098
21.25	318.674
21.3	300.337
21.35	246.134
21.4	250.595
21.45	220.588
21.5	328.371
21.55	333.89
21.6	265.328
21.65	290.92
21.7	264.373
21.75	237.026
21.8	299.749
21.85	240.165
21.9	268.013
21.95	278.795
22	262.519
22.05	311.714
22.1	383.559
22.15	356.091
22.2	390.608
22.25	346.637
22.3	393.811
22.35	399.947
22.4	397.672
22.45	379.639
22.5	454.628
22.55	425.402
22.6	317.589
22.65	332.096
22.7	357.324
22.75	380.375
22.8	316.775
22.85	376.981
22.9	342.658
22.95	343.879
23	362.845
23.05	337.865
23.1	293.351
23.15	352.921
23.2	280.582
23.25	338.828
23.3	326.361
23.35	277.339
23.4	310.401
23.45	270.5
23.5	270.18
23.55	275.447
23.6	218.325
23.65	274.262
23.7	231.093
23.75	308.69
23.8	257.412
23.85	269.146
23.9	236.527
23.95	295.712
24	323.405
24.05	382.183
24.1	439.658
24.15	587.23
24.2	676.714
24.25	652.693
24.3	747.756
24.35	596.48
24.4	521.356
24.45	425.323
24.5	349.054
24.55	269.981
24.6	321.879
24.65	295.72
24.7	235.528
24.75	221.769
24.8	261.702
24.85	232.742
24.9	229.222
24.95	253.185
25	254.436
25.05	251.832
25.1	254.504
25.15	241.703
25.2	263.975
25.25	284.669
25.3	367.055
25.35	279.825
25.4	379.6
25.45	387.683
25.5	534.261
25.55	783.204
25.6	892.312
25.65	838.37
25.7	837.873
25.75	770.048
25.8	669.068
25.85	532.823
25.9	490.545
25.95	344.788
26	333.235
26.05	315.48
26.1	353.088
26.15	291.788
26.2	292.24
26.25	299.876
26.3	344.332
26.35	292.768
26.4	289.275
26.45	271.167
26.5	290.714
26.55	331.64
26.6	366.781
26.65	335.96
26.7	396.556
26.75	420.919
26.8	356.945
26.85	398.815
26.9	331.206
26.95	298.31
27	338.965
27.05	235.248
27.1	228.596
27.15	271.368
27.2	316.172
27.25	403.235
27.3	460.788
27.35	563.718
27.4	494.117
27.45	495.953
27.5	465.947
27.55	348.374
27.6	325.795
27.65	358.386
27.7	317.364
27.75	269.933
27.8	283.093
27.85	304.092
27.9	369.145
27.95	382.673
28	456.475
28.05	582.16
28.1	617.025
28.15	642.538
28.2	741.333
28.25	741.262
28.3	778.834
28.35	717.581
28.4	536.39
28.45	469.058
28.5	435.443
28.55	331.248
28.6	293.051
28.65	246.432
28.7	237.609
28.75	238.35
28.8	240.628
28.85	250.491
28.9	218.102
28.95	285.757
29	231.453
29.05	289.581
29.1	268.645
29.15	219.523
29.2	257.078
29.25	240.755
29.3	252.664
29.35	296.68
29.4	263.177
29.45	270.536
29.5	300.445
29.55	331.314
29.6	400.413
29.65	313.81
29.7	322.433
29.75	332.442
29.8	280.926
29.85	354.77
29.9	324.335
29.95	277.578
30	226.186
30.05	302.431
30.1	343.958
30.15	402.074
30.2	400.763
30.25	369.955
30.3	432.709
30.35	422.29
30.4	421.605
30.45	487.36
30.5	433.806
30.55	583.969
30.6	717.178
30.65	899.192
30.7	843.474
30.75	1169.03
30.8	1319.82
30.85	1517.48
30.9	2192.6
30.95	2547.01
31	3132.36
31.05	3292.73
31.1	3037.91
31.15	2300.55
31.2	1586.38
31.25	878.513
31.3	546.237
31.35	366.24
31.4	345.985
31.45	320.075
31.5	345.806
31.55	291.615
31.6	331.107
31.65	369.901
31.7	403.22
31.75	407.016
31.8	452.652
31.85	392.221
31.9	460.027
31.95	345.436
32	359.368
32.05	345.218
32.1	411.066
32.15	582.63
32.2	549.265
32.25	742.321
32.3	813.138
32.35	871.778
32.4	1022.82
32.45	1286.32
32.5	1220.54
32.55	1202.17
32.6	1183.65
32.65	1106.13
32.7	957.444
32.75	862.893
32.8	771.071
32.85	750.469
32.9	770.403
32.95	770.437
33	672.134
33.05	623.658
33.1	553.12
33.15	598.298
33.2	565.791
33.25	579.626
33.3	472.986
33.35	493.374
33.4	447.382
33.45	394.644
33.5	308.998
33.55	319.309
33.6	321.632
33.65	240.918
33.7	270.902
33.75	198.417
33.8	193.419
33.85	211.076
33.9	229.175
33.95	215.96
34	206.745
34.05	216.864
34.1	231.425
34.15	232.418
34.2	262.714
34.25	247.82
34.3	219.08
34.35	172.498
34.4	255.278
34.45	180.595
34.5	242.855
34.55	206.946
34.6	269.094
34.65	237.899
34.7	227.152
34.75	201.03
34.8	221.979
34.85	253.386
34.9	214.371
34.95	273.754
35	320.163
35.05	370.984
35.1	378.283
35.15	476.283
35.2	494.698
35.25	484.493
35.3	449.085
35.35	522.824
35.4	549.265
35.45	554.775
35.5	706.296
35.55	721.854
35.6	607.542
35.65	534.406
35.7	498.922
35.75	369.596
35.8	350.552
35.85	275.397
35.9	253.286
35.95	210.401
36	282.298
36.05	209.065
36.1	172.763
36.15	178.757
36.2	180.804
36.25	261.135
36.3	252.464
36.35	248.986
36.4	238.32
36.45	249.684
36.5	259.356
36.55	200.275
36.6	219.63
36.65	248.33
36.7	216.482
36.75	194.043
36.8	267.306
36.85	189.479
36.9	219.851
36.95	251.227
37	190.288
37.05	232.671
37.1	247.047
37.15	240.474
37.2	217.824
37.25	288.255
37.3	227.672
37.35	222.99
37.4	182.909
37.45	209.934
37.5	201.677
37.55	168.381
37.6	223.794
37.65	173.802
37.7	200.879
37.75	187.193
37.8	189.714
37.85	219.911
37.9	200.868
37.95	228.633
38	281.278
38.05	291.422
38.1	326.383
38.15	308.414
38.2	307.359
38.25	328.545
38.3	351.397
38.35	289.882
38.4	259.344
38.45	250.915
38.5	278.792
38.55	317.529
38.6	435.657
38.65	412.791
38.7	538.663
38.75	676.064
38.8	626.734
38.85	515.38
38.9	473.06
38.95	322.815
39	169.756
39.05	200.536
39.1	217.664
39.15	216.051
39.2	245.342
39.25	264.84
39.3	294.689
39.35	253.004
39.4	311.847
39.45	269.289
39.5	404.474
39.55	511.116
39.6	552.725
39.65	608.136
39.7	784.93
39.75	748.203
39.8	788.584
39.85	776.119
39.9	623.448
39.95	555.186
40	482.38
40.05	309.388
40.1	308.972
40.15	211.918
40.2	194.366
40.25	227.865
40.3	234.614
40.35	333.292
40.4	311.197
40.45	366.983
40.5	422.29
40.55	377.183
40.6	300.618
40.65	296.629
40.7	255.518
40.75	266.024
40.8	315.263
40.85	364.387
40.9	403.626
40.95	463.596
41	496.437
41.05	564.944
41.1	535.025
41.15	602.346
41.2	578.053
41.25	679.443
41.3	512.663
41.35	425.021
41.4	364.478
41.45	305.129
41.5	233.295
41.55	284.79
41.6	229.312
41.65	231.941
41.7	231.621
41.75	193.849
41.8	166.226
41.85	201.53
41.9	186.766
41.95	176.975
42	187.435
42.05	175.74
42.1	131.031
42.15	143.107
42.2	224.385
42.25	218.718
42.3	166.352
42.35	173.054
42.4	224.457
42.45	201.601
42.5	217.432
42.55	320.743
42.6	328.437
42.65	453.417
42.7	503.934
42.75	516.209
42.8	570.436
42.85	613.01
42.9	638.809
42.95	569.896
43	571.011
43.05	490.752
43.1	412.139
43.15	414.951
43.2	288.965
43.25	222.554
43.3	294.802
43.35	317.321
43.4	284.058
43.45	198.144
43.5	201.92
43.55	184.023
43.6	193.882
43.65	181.463
43.7	220.06
43.75	214.892
43.8	195.447
43.85	192.679
43.9	213.334
43.95	193.929
44	217.072
44.05	177.696
44.1	245.17
44.15	210.259
44.2	219.024
44.25	221.238
44.3	187.032
44.35	217.957
44.4	146.709
44.45	132.426
44.5	121.826
44.55	142.848
44.6	130.356
44.65	151.603
44.7	123.962
44.75	194.552
44.8	166.582
44.85	223.328
44.9	265.509
44.95	347.051
45	265.32
45.05	276.621
45.1	322.771
45.15	331.532
45.2	271.035
45.25	258.779
45.3	264.891
45.35	200.525
45.4	287.977
45.45	279.986
45.5	249.712
45.55	185.76
45.6	214.465
45.65	207.631
45.7	250.062
45.75	226.178
45.8	285.568
45.85	280.949
45.9	391.821
45.95	308.121
46	430.122
46.05	390.201
46.1	494.632
46.15	467.929
46.2	430.974
46.25	320.883
46.3	370.645
46.35	352.855
46.4	264.551
46.45	203.059
46.5	209.098
46.55	222.642
46.6	181.126
46.65	180.815
46.7	201.15
46.75	221.275
46.8	192.302
46.85	207.441
46.9	170.05
46.95	235.398
47	245.277
47.05	180.178
47.1	196.161
47.15	186.366
47.2	217.03
47.25	191.272
47.3	195.175
47.35	148.821
47.4	146.1
47.45	189.242
47.5	218.278
47.55	198.924
47.6	216.012
47.65	238.623
47.7	202.636
47.75	226.185
47.8	179.029
47.85	215.01
47.9	176.585
47.95	193.273
48	192.205
48.05	252.903
48.1	198.762
48.15	314.885
48.2	327.352
48.25	331.399
48.3	374.204
48.35	348.015
48.4	293.622
48.45	267.409
48.5	305.937
48.55	277.46
48.6	205.858
48.65	276.641
48.7	229.763
48.75	196.793
48.8	179.365
48.85	232.7
48.9	220.382
48.95	315.05
49	288.555
49.05	267.421
49.1	294.865
49.15	241.854
49.2	270.228
49.25	202.813
49.3	200.342
49.35	160.876
49.4	167.116
49.45	195.345
49.5	199.554
49.55	199.532
49.6	230.299
49.65	283.743
49.7	323.139
49.75	296.587
49.8	313.681
49.85	246.228
49.9	203.888
49.95	284.978
50	170.515
50.05	176.622
50.1	100.519
50.15	90.8602
50.2	124.894
50.25	164.165
50.3	121.578
50.35	171.492
50.4	158.949
50.45	125.809
50.5	137.812
50.55	172.522
50.6	155.302
50.65	133.651
50.7	125.782
50.75	140.984
50.8	123.671
50.85	114.999
50.9	146.265
50.95	162.328
51	161.75
51.05	153.639
51.1	155.007
51.15	156.67
51.2	106.194
51.25	165.728
51.3	112.44
51.35	85.9769
51.4	146.016
51.45	109.222
51.5	90.3903
51.55	108.272
51.6	146.826
51.65	149.007
51.7	166.721
51.75	152.846
51.8	124.504
51.85	106.608
51.9	85.2546
51.95	187.489
52	156.984
52.05	176.447
52.1	181.653
52.15	218.709
52.2	201.532
52.25	208.52
52.3	232.82
52.35	285.791
52.4	248.114
52.45	266.632
52.5	246.313
52.55	238.756
52.6	196.082
52.65	185.881
52.7	194.833
52.75	228.3
52.8	261.205
52.85	238.484
52.9	276.981
52.95	282.799
53	254.668
53.05	223.881
53.1	236.319
53.15	168.639
53.2	125.592
53.25	167.802
53.3	231.973
53.35	132.79
53.4	189.633
53.45	123.198
53.5	134.495
53.55	177.068
53.6	232.101
53.65	211.306
53.7	190.867
53.75	195.916
53.8	167.916
53.85	210.315
53.9	230.2
53.95	156.26
54	127.302
54.05	124.754
54.1	107.19
54.15	137.285
54.2	126.402
54.25	134.863
54.3	138.61
54.35	90.4962
54.4	147.472
54.45	132.792
54.5	97.5139
54.55	149.938
54.6	120.498
54.65	117.761
54.7	167.621
54.75	141.756
54.8	114.774
54.85	176.571
54.9	148.44