File: XRD_data/Mix4A_2-film.txt
#InstrumentID: BTX.359
#DatasetName: Mix4A_2
#SampleInfo:
#AcquisitionDate: 12/12/13 18:41:22
#IntegrationTime: 400 seconds
#GeometryParams: axisX = -68.5142 axisY = 134 axisZ = 1194.7 sensorAngle1 = -29.0823 sensorAngle3 = 0
#EnergyParams: splitThreshold = 12 CoKaPeak = 1294 kBFilterIn = 1
5	422.886
5.05	436.608
5.1	351.872
5.15	432.505
5.2	371.109
5.25	385.255
5.3	407.484
5.35	424.335
5.4	404.938
5.45	466.078
5.5	420.32
5.55	443.967
5.6	403.932
5.65	386.495
5.7	370.103
5.75	456.609
5.8	370.041
5.85	487.619
5.9	458.175
5.95	503.842
6	566.997
6.05	480.026
6.1	496.115
6.15	560.906
6.2	530.226
6.25	555.978
6.3	538.534
6.35	531.643
6.4	525.975
6.45	599.443
6.5	597.891
6.55	517.749
6.6	567.32
6.65	574.546
6.7	473.045
6.75	510.218
6.8	517.806
6.85	496.144
6.9	499.365
6.95	493.868
7	510.781
7.05	397.019
7.1	403.998
7.15	392.417
7.2	418.264
7.25	407.149
7.3	403.72
7.35	427.007
7.4	416.861
7.45	366.435
7.5	432.042
7.55	403.547
7.6	385.14
7.65	363.836
7.7	343.417
7.75	346.97
7.8	343.748
7.85	380.293
7.9	444.753
7.95	362.269
8	352.448
8.05	404.304
8.1	408.806
8.15	321.251
8.2	396.421
8.25	346.456
8.3	396.994
8.35	352.171
8.4	410.905
8.45	399.413
8.5	380.647
8.55	402.089
8.6	382.644
8.65	406.622
8.7	359.697
8.75	400.339
8.8	357.87
8.85	365.119
8.9	379.97
8.95	402.413
9	459.622
9.05	432.344
9.1	373.784
9.15	400.219
9.2	387.776
9.25	399.852
9.3	437.51
9.35	402.431
9.4	430.8
9.45	382.426
9.5	387.994
9.55	489.892
9.6	490.043
9.65	488.65
9.7	569.535
9.75	666.549
9.8	672.302
9.85	781.673
9.9	937.193
9.95	1044.22
10	1079.71
10.05	1137.17
10.1	1177.66
10.15	1077.16
10.2	1039.85
10.25	961.959
10.3	842.498
10.35	775.146
10.4	599.059
10.45	536.487
10.5	525.228
10.55	475.723
10.6	470.962
10.65	394.363
10.7	434.811
10.75	381.49
10.8	348.89
10.85	398.927
10.9	375.568
10.95	421.499
11	368.985
11.05	368.734
11.1	331.551
11.15	356.571
11.2	359.651
11.25	315.044
11.3	360.216
11.35	347.725
11.4	367.285
11.45	381.072
11.5	388.136
11.55	297.148
11.6	328.109
11.65	312.441
11.7	339.125
11.75	326.358
11.8	269.637
11.85	402.5
11.9	367.293
11.95	338.054
12	309.193
12.05	370.894
12.1	357.735
12.15	395.305
12.2	289.857
12.25	310.032
12.3	324.177
12.35	326.359
12.4	320.348
12.45	347.73
12.5	359.771
12.55	323.501
12.6	339.227
12.65	328.735
12.7	294.103
12.75	340.195
12.8	387.755
12.85	397.931
12.9	416.323
12.95	323.492
13	360.907
13.05	327.718
13.1	308.524
13.15	339.187
13.2	438.713
13.25	340.644
13.3	362.157
13.35	389.294
13.4	322.765
13.45	323.108
13.5	331.269
13.55	322.824
13.6	352.611
13.65	276.932
13.7	310.962
13.75	320.275
13.8	275.571
13.85	251.383
13.9	334.008
13.95	345.532
14	311.883
14.05	375.808
14.1	346.015
14.15	284.407
14.2	355.087
14.25	362.13
14.3	350.647
14.35	357.093
14.4	324.884
14.45	296.388
14.5	340.742
14.55	349.032
14.6	303.376
14.65	339.389
14.7	358.069
14.75	299.337
14.8	303.089
14.85	317.408
14.9	299.315
14.95	300.167
15	336.112
15.05	355.355
15.1	306.022
15.15	310.436
15.2	284.723
15.25	323.696
15.3	322.288
15.35	281.344
15.4	337.185
15.45	346.305
15.5	304.289
15.55	285.176
15.6	316.732
15.65	327.604
15.7	325.776
15.75	353.773
15.8	307.122
15.85	372.955
15.9	361.868
15.95	424.59
16	346.47
16.05	383.671
16.1	372.689
16.15	402.128
16.2	388.743
16.25	358.931
16.3	343.322
16.35	377.001
16.4	360.301
16.45	351.985
16.5	342.253
16.55	279.607
16.6	419.354
16.65	315.857
16.7	313.388
16.75	286.163
16.8	342.284
16.85	340.004
16.9	356.657
16.95	331.797
17	268.952
17.05	344.558
17.1	310.005
17.15	348.144
17.2	307.52
17.25	360.876
17.3	384.948
17.35	381.598
17.4	381.32
17.45	375.875
17.5	373.639
17.55	287.236
17.6	346.473
17.65	349.769
17.7	323.254
17.75	272.294
17.8	313.106
17.85	278.187
17.9	302.946
17.95	295.076
18	284.544
18.05	263.061
18.1	276.81
18.15	332.56
18.2	298.796
18.25	270.637
18.3	352.194
18.35	309.999
18.4	297.135
18.45	350.485
18.5	352.544
18.55	304.758
18.6	298.351
18.65	324.111
18.7	309.672
18.75	303.288
18.8	322.758
18.85	306.06
18.9	314.674
18.95	289.262
19	288.029
19.05	282.749
19.1	318.832
19.15	296.052
19.2	321.398
19.25	285.83
19.3	288.301
19.35	284.44
19.4	366.096
19.45	283.739
19.5	298.809
19.55	283.771
19.6	268.425
19.65	269.038
19.7	245.307
19.75	287.076
19.8	305.611
19.85	289.564
19.9	287.849
19.95	268.324
20	258.776
20.05	293.027
20.1	278.739
20.15	284.226
20.2	289.571
20.25	235.134
20.3	276.541
20.35	245.825
20.4	277.732
20.45	263.898
20.5	353.578
20.55	332.116
20.6	322.367
20.65	369.609
20.7	311.247
20.75	317.189
20.8	245.685
20.85	348.132
20.9	306.998
20.95	320.648
21	206.571
21.05	227.307
21.1	229.67
21.15	259.558
21.2	256.546
21.25	232.127
21.3	274.911
21.35	265.028
21.4	263.598
21.45	221.277
21.5	246.531
21.55	266.919
21.6	274.727
21.65	307.734
21.7	213.713
21.75	211.463
21.8	307.469
21.85	289.902
21.9	254.351
21.95	283.964
22	279.254
22.05	300.696
22.1	272.604
22.15	270.906
22.2	322.446
22.25	337.531
22.3	352.631
22.35	399.064
22.4	417.282
22.45	367.151
22.5	329.355
22.55	359.438
22.6	372.577
22.65	367.957
22.7	351.361
22.75	440.639
22.8	400.427
22.85	393.72
22.9	414.396
22.95	469.808
23	581.636
23.05	616.442
23.1	637.747
23.15	627.02
23.2	538.694
23.25	549.454
23.3	398.009
23.35	412.205
23.4	348.697
23.45	368.362
23.5	323.766
23.55	368.77
23.6	323.262
23.65	368.651
23.7	316.504
23.75	286.08
23.8	320.968
23.85	381.539
23.9	383.158
23.95	437.664
24	355.763
24.05	499.034
24.1	687.868
24.15	775.927
24.2	1009.82
24.25	1123.58
24.3	1073.48
24.35	951.49
24.4	785.983
24.45	530.542
24.5	428.162
24.55	306.61
24.6	303.103
24.65	238.627
24.7	294.279
24.75	282.498
24.8	307.839
24.85	241.344
24.9	278.756
24.95	334.532
25	283.23
25.05	292.592
25.1	359.379
25.15	320.074
25.2	305.921
25.25	271.328
25.3	268.701
25.35	266.49
25.4	337.497
25.45	446.644
25.5	476.611
25.55	593.931
25.6	799.997
25.65	818.242
25.7	767.429
25.75	735.485
25.8	540.652
25.85	465.43
25.9	392.907
25.95	369.478
26	324.134
26.05	330.203
26.1	331.121
26.15	356.738
26.2	274.802
26.25	278.043
26.3	325.742
26.35	367.838
26.4	297.939
26.45	304.683
26.5	341.212
26.55	319.464
26.6	319.981
26.65	373.032
26.7	350.879
26.75	427.733
26.8	378.139
26.85	393.103
26.9	421.334
26.95	270.099
27	291.469
27.05	300.919
27.1	310.453
27.15	281.507
27.2	330.312
27.25	313.168
27.3	425.295
27.35	426.73
27.4	413.143
27.45	458.607
27.5	400.541
27.55	412.604
27.6	383.947
27.65	375.574
27.7	429.529
27.75	336.437
27.8	353.848
27.85	385.982
27.9	380.5
27.95	412.069
28	515.319
28.05	574.523
28.1	664.699
28.15	604.411
28.2	615.143
28.25	711.643
28.3	630.114
28.35	514.749
28.4	452.11
28.45	455.957
28.5	318.071
28.55	271.594
28.6	244.405
28.65	323.593
28.7	258.9
28.75	207.331
28.8	279.023
28.85	243.35
28.9	256.138
28.95	258.317
29	269.471
29.05	244.608
29.1	244.897
29.15	259.646
29.2	227.938
29.25	258.035
29.3	227.944
29.35	271.141
29.4	377.311
29.45	391.009
29.5	417.075
29.55	420.347
29.6	434.736
29.65	487.183
29.7	432.664
29.75	512.98
29.8	402.715
29.85	421.376
29.9	348.397
29.95	336.89
30	323.785
30.05	312.594
30.1	340.307
30.15	316.788
30.2	354.302
30.25	355.129
30.3	422.566
30.35	476.998
30.4	468.175
30.45	538.587
30.5	469.241
30.55	556.587
30.6	574.792
30.65	562.213
30.7	705.774
30.75	973.109
30.8	1250.13
30.85	1858.49
30.9	2745.83
30.95	3332.54
31	4041.35
31.05	3990.2
31.1	3997.03
31.15	3202.55
31.2	2297.93
31.25	1516.61
31.3	821.363
31.35	626.649
31.4	439.268
31.45	337.763
31.5	340.296
31.55	341.825
31.6	289.863
31.65	321.626
31.7	314.796
31.75	301.052
31.8	259.996
31.85	315.147
31.9	302.301
31.95	278.463
32	317.535
32.05	305.835
32.1	384.132
32.15	441.564
32.2	624.991
32.25	712.661
32.3	782.651
32.35	916.425
32.4	1006.69
32.45	996.601
32.5	1203.87
32.55	1278.77
32.6	1151.03
32.65	1070.32
32.7	1041.1
32.75	855.295
32.8	775.641
32.85	639.782
32.9	598.477
32.95	682.295
33	598.052
33.05	560.92
33.1	592.196
33.15	405.736
33.2	316.623
33.25	311.119
33.3	285.356
33.35	275.588
33.4	205.172
33.45	276.726
33.5	283.97
33.55	241.574
33.6	255.629
33.65	229.246
33.7	181.791
33.75	228.892
33.8	196.579
33.85	258.233
33.9	224.685
33.95	222.97
34	174.499
34.05	236.994
34.1	188.855
34.15	216.061
34.2	250.39
34.25	231.765
34.3	180.202
34.35	194.082
34.4	200.57
34.45	261.581
34.5	273.269
34.55	268.068
34.6	283.241
34.65	295.962
34.7	333.23
34.75	313.839
34.8	295.853
34.85	325.433
34.9	320.636
34.95	412.662
35	374.166
35.05	372.71
35.1	405.734
35.15	367.642
35.2	400.232
35.25	440.984
35.3	459.297
35.35	338.154
35.4	410.123
35.45	389.259
35.5	423.16
35.55	414.306
35.6	434.348
35.65	353.06
35.7	346.435
35.75	261.374
35.8	257.885
35.85	309.764
35.9	184.101
35.95	242.499
36	216.292
36.05	206.587
36.1	256.359
36.15	226.55
36.2	280.995
36.25	298.751
36.3	292.99
36.35	349.118
36.4	363.017
36.45	361.655
36.5	348.583
36.55	319.807
36.6	255.305
36.65	285.567
36.7	230.27
36.75	169.484
36.8	129.614
36.85	223.209
36.9	184.305
36.95	238.971
37	199.109
37.05	192.896
37.1	195.826
37.15	186.186
37.2	180.929
37.25	213.195
37.3	249.209
37.35	239.523
37.4	241.51
37.45	229.612
37.5	250.224
37.55	171.678
37.6	199.074
37.65	171.867
37.7	185.77
37.75	213.411
37.8	167.609
37.85	129.033
37.9	223.034
37.95	113.069
38	168.34
38.05	181.786
38.1	139.674
38.15	165.334
38.2	228.193
38.25	200.404
38.3	130.504
38.35	200.58
38.4	234.817
38.45	179.503
38.5	181.386
38.55	171.813
38.6	157.213
38.65	180.168
38.7	207.645
38.75	188.398
38.8	164.97
38.85	183.848
38.9	186.213
38.95	201.833
39	169.837
39.05	174.352
39.1	213.803
39.15	233.632
39.2	201.717
39.25	222.768
39.3	278.335
39.35	207.446
39.4	293.933
39.45	223.712
39.5	368.04
39.55	406.081
39.6	461.359
39.65	601.265
39.7	765.905
39.75	716.467
39.8	791.831
39.85	772.519
39.9	649.305
39.95	520.091
40	447.101
40.05	394.018
40.1	318.419
40.15	328.805
40.2	295.761
40.25	296.353
40.3	371.423
40.35	321.972
40.4	292.345
40.45	279.771
40.5	331.264
40.55	381.542
40.6	378.405
40.65	368.47
40.7	499.708
40.75	604.533
40.8	614.789
40.85	631.713
40.9	594.901
40.95	543.53
41	395.546
41.05	396.288
41.1	299.28
41.15	276.3
41.2	308.562
41.25	287.09
41.3	288.67
41.35	220.216
41.4	177.222
41.45	285.611
41.5	217.771
41.55	210.092
41.6	196.414
41.65	230.711
41.7	260.705
41.75	171.17
41.8	209.745
41.85	187.095
41.9	179.678
41.95	159.201
42	191.093
42.05	172.155
42.1	157.898
42.15	178.722
42.2	147.371
42.25	176.536
42.3	190.174
42.35	196.629
42.4	188.773
42.45	351.193
42.5	330.451
42.55	451.896
42.6	427.224
42.65	581.341
42.7	618.505
42.75	600.607
42.8	696.875
42.85	615.407
42.9	545.598
42.95	604.251
43	588.612
43.05	520.696
43.1	463.678
43.15	384.272
43.2	408.725
43.25	309.29
43.3	280.973
43.35	278.876
43.4	228.363
43.45	217.466
43.5	194.704
43.55	177.23
43.6	189.697
43.65	212.072
43.7	234.849
43.75	276.41
43.8	191.981
43.85	220.186
43.9	238.659
43.95	255.277
44	262.627
44.05	253.891
44.1	277.575
44.15	267.119
44.2	247.699
44.25	291.503
44.3	194.234
44.35	229.023
44.4	197.306
44.45	146.226
44.5	187.479
44.55	160.891
44.6	143.817
44.65	151.796
44.7	117.761
44.75	124.022
44.8	172.016
44.85	135.103
44.9	138.438
44.95	135.092
45	132.002
45.05	138.285
45.1	181.413
45.15	181.574
45.2	166.34
45.25	184.961
45.3	240.576
45.35	170.26
45.4	206.108
45.45	220.634
45.5	224.733
45.55	195.036
45.6	216.133
45.65	157.335
45.7	191.444
45.75	152.537
45.8	181.436
45.85	208.635
45.9	222.273
45.95	253.39
46	268.652
46.05	331.585
46.1	383.346
46.15	428.351
46.2	420.477
46.25	388.869
46.3	389.261
46.35	322.324
46.4	272.416
46.45	207.293
46.5	190.517
46.55	212.315
46.6	165.482
46.65	183.939
46.7	198.599
46.75	190.939
46.8	194.882
46.85	248.85
46.9	219.93
46.95	252.89
47	238.025
47.05	293.654
47.1	313.098
47.15	258.821
47.2	240.487
47.25	266.309
47.3	271.945
47.35	149.818
47.4	202.355
47.45	202.71
47.5	204.854
47.55	172.509
47.6	182.974
47.65	219.525
47.7	201.861
47.75	199.589
47.8	133.326
47.85	237.676
47.9	187.198
47.95	245.514
48	219.215
48.05	233.984
48.1	191.723
48.15	291.707
48.2	294.291
48.25	362.144
48.3	390.731
48.35	364.134
48.4	378.129
48.45	346.403
48.5	332.34
48.55	331.112
48.6	267.25
48.65	292.693
48.7	198.868
48.75	178.204
48.8	225.987
48.85	227.193
48.9	173.614
48.95	184.591
49	181.589
49.05	209.305
49.1	232.48
49.15	242.153
49.2	244.238
49.25	220.996
49.3	236.323
49.35	215.572
49.4	178.741
49.45	230.827
49.5	268.632
49.55	246.596
49.6	349.745
49.65	418.279
49.7	375.704
49.75	411.481
49.8	359.733
49.85	330.805
49.9	252.972
49.95	297.71
50	154.206
50.05	159.245
50.1	163.932
50.15	149.235
50.2	164.583
50.25	147.608
50.3	123.065
50.35	168.768
50.4	106.805
50.45	117.133
50.5	147.284
50.55	142.761
50.6	140.148
50.65	124.378
50.7	191.483
50.75	172.312
50.8	144.47
50.85	155.691
50.9	137.087
50.95	186.227
51	166.623
51.05	154.287
51.1	148.736
51.15	125.898
51.2	122.672
51.25	170.401
51.3	100.542
51.35	139.364
51.4	100.188
51.45	113.69
51.5	159.594
51.55	151.028
51.6	158.575
51.65	135.743
51.7	116.041
51.75	176.9
51.8	145.321
51.85	103.777
51.9	113.625
51.95	144.262
52	86.2125
52.05	149.957
52.1	183.463
52.15	138.002
52.2	200.732
52.25	179.716
52.3	198.504
52.35	184.92
52.4	180.899
52.45	183.429
52.5	185.55
52.55	132.014
52.6	143.362
52.65	186.639
52.7	224.583
52.75	159.521
52.8	210.71
52.85	169.246
52.9	162.088
52.95	194.664
53	206.142
53.05	229.561
53.1	264.811
53.15	222.503
53.2	249.43
53.25	226.624
53.3	173.712
53.35	184.009
53.4	193.464
53.45	191.674
53.5	156.473
53.55	218.185
53.6	244.684
53.65	239.702
53.7	200.344
53.75	173.227
53.8	261.028
53.85	201.961
53.9	216.723
53.95	135.93
54	170.753
54.05	147.297
54.1	131.814
54.15	110.616
54.2	88.8648
54.25	121.227
54.3	122.001
54.35	172.034
54.4	108.61
54.45	122.911
54.5	142.163
54.55	151.789
54.6	119.03
54.65	111.052
54.7	120.923
54.75	118.849
54.8	113.356
54.85	124.161
54.9	174.071